Timestamp,Accel_X,Accel_Y,Accel_Z,Gyro_X,Gyro_Y,Gyro_Z
22400.414628541,-0.1783447265625,0.0,0.0,0.0,0.0,0.0
22400.41499525,-0.1759033203125,0.0,0.0,0.0,0.0,0.0
22400.442156333,-0.1748046875,0.0,0.0,0.0,0.0,0.0
22400.442321333,-0.1748046875,0.038818359375,0.0,0.0,0.0,0.0
22400.458315291,-0.1766357421875,0.038818359375,0.0,0.0,0.0,0.0
22400.458393541,-0.1766357421875,0.0382080078125,0.0,0.0,0.0,0.0
22400.486221458,-0.1768798828125,0.0382080078125,0.0,0.0,0.0,0.0
22400.50127375,-0.1768798828125,0.037841796875,0.0,0.0,0.0,0.0
22400.501368875,-0.1768798828125,0.037841796875,-0.9989013671875,0.0,0.0,0.0
22400.502931916,-0.17822265625,0.037841796875,-0.9989013671875,0.0,0.0,0.0
22400.503126208,-0.17822265625,0.03759765625,-0.9989013671875,0.0,0.0,0.0
22400.532010208,-0.17626953125,0.03759765625,-0.9989013671875,0.0,0.0,0.0
22400.532838833,-0.17626953125,0.036865234375,-0.9989013671875,0.0,0.0,0.0
22400.533008125,-0.17626953125,0.036865234375,-0.9932861328125,0.0,0.0,0.0
22400.561733125,-0.177734375,0.036865234375,-0.9932861328125,0.0,0.0,0.0
22400.561930041,-0.177734375,0.0389404296875,-0.9932861328125,0.0,0.0,0.0
22400.566979541,-0.177734375,0.0389404296875,-0.998291015625,0.0,0.0,0.0
22400.567073708,-0.177734375,0.0389404296875,-0.998291015625,1.52587890625,0.0,0.0
22400.576414375,-0.1771240234375,0.0389404296875,-0.998291015625,1.52587890625,0.0,0.0
22400.576643083,-0.1771240234375,0.0372314453125,-0.998291015625,1.52587890625,0.0,0.0
22400.591591958,-0.1771240234375,0.0372314453125,-0.998291015625,1.46484375,0.0,0.0
22400.5917545,-0.1771240234375,0.0372314453125,-0.998291015625,1.46484375,-0.42724609375,0.0
22400.622750333,-0.180419921875,0.0372314453125,-0.998291015625,1.46484375,-0.42724609375,0.0
22400.622981458,-0.180419921875,0.03857421875,-0.998291015625,1.46484375,-0.42724609375,0.0
22400.623090916,-0.180419921875,0.03857421875,-0.9981689453125,1.46484375,-0.42724609375,0.0
22400.636024791,-0.1793212890625,0.03857421875,-0.9981689453125,1.46484375,-0.42724609375,0.0
22400.636223708,-0.1793212890625,0.039306640625,-0.9981689453125,1.46484375,-0.42724609375,0.0
22400.636942208,-0.1793212890625,0.039306640625,-0.9967041015625,1.46484375,-0.42724609375,0.0
22400.651519291,-0.1793212890625,0.039306640625,-0.9967041015625,1.46484375,-0.42724609375,0.0
22400.651701916,-0.1793212890625,0.039306640625,-0.9967041015625,1.46484375,-0.42724609375,1.5869140625
22400.682669125,-0.1781005859375,0.039306640625,-0.9967041015625,1.46484375,-0.42724609375,1.5869140625
22400.6830435,-0.1781005859375,0.0390625,-0.9967041015625,1.46484375,-0.42724609375,1.5869140625
22400.683279083,-0.1781005859375,0.0390625,-0.9957275390625,1.46484375,-0.42724609375,1.5869140625
22400.683404541,-0.1781005859375,0.0390625,-0.9957275390625,1.46484375,-0.42724609375,1.5869140625
22400.712156,-0.177734375,0.0390625,-0.9957275390625,1.46484375,-0.42724609375,1.5869140625
22400.718232416,-0.177734375,0.0423583984375,-0.9957275390625,1.46484375,-0.42724609375,1.5869140625
22400.7417325,-0.177734375,0.0423583984375,-0.997314453125,1.46484375,-0.42724609375,1.5869140625
22400.742080041,-0.177734375,0.0423583984375,-0.997314453125,1.46484375,-0.3662109375,1.5869140625
22400.742249125,-0.1761474609375,0.0423583984375,-0.997314453125,1.46484375,-0.3662109375,1.5869140625
22400.772011916,-0.1761474609375,0.04052734375,-0.997314453125,1.46484375,-0.3662109375,1.5869140625
22400.777636625,-0.1761474609375,0.04052734375,-0.997314453125,2.74658203125,-0.3662109375,1.5869140625
22400.777768458,-0.1761474609375,0.04052734375,-0.997314453125,2.74658203125,-0.6103515625,1.5869140625
22400.777854958,-0.1761474609375,0.04052734375,-0.997314453125,2.74658203125,-0.6103515625,1.52587890625
22400.801532,-0.1761474609375,0.041015625,-0.997314453125,2.74658203125,-0.6103515625,1.52587890625
22400.801779375,-0.1761474609375,0.041015625,-0.9979248046875,2.74658203125,-0.6103515625,1.52587890625
22400.802230125,-0.1761474609375,0.041015625,-0.9979248046875,2.99072265625,-0.6103515625,1.52587890625
22400.846773583,-0.1761474609375,0.041015625,-0.9979248046875,2.99072265625,-0.6103515625,1.77001953125
22400.847160125,-0.1766357421875,0.041015625,-0.9979248046875,2.99072265625,-0.6103515625,1.77001953125
22400.847424,-0.1766357421875,0.041015625,-0.9979248046875,2.99072265625,-0.6103515625,1.77001953125
22400.861762375,-0.1766357421875,0.041015625,-0.995361328125,2.99072265625,-0.6103515625,1.77001953125
22400.862233166,-0.1766357421875,0.041015625,-0.995361328125,2.99072265625,-0.3662109375,1.77001953125
22400.862450833,-0.1766357421875,0.041015625,-0.995361328125,2.99072265625,-0.3662109375,1.77001953125
22400.876259333,-0.17626953125,0.041015625,-0.995361328125,2.99072265625,-0.3662109375,1.77001953125
22400.87637825,-0.17626953125,0.0401611328125,-0.995361328125,2.99072265625,-0.3662109375,1.77001953125
22400.877110666,-0.17626953125,0.0401611328125,-0.9967041015625,2.99072265625,-0.3662109375,1.77001953125
22400.892571375,-0.17626953125,0.0401611328125,-0.9967041015625,2.99072265625,-0.42724609375,1.77001953125
22400.892685708,-0.17626953125,0.0401611328125,-0.9967041015625,2.99072265625,-0.42724609375,1.708984375
22400.90919025,-0.1785888671875,0.0401611328125,-0.9967041015625,2.99072265625,-0.42724609375,1.708984375
22400.909283833,-0.1785888671875,0.039794921875,-0.9967041015625,2.99072265625,-0.42724609375,1.708984375
22400.909369541,-0.1785888671875,0.039794921875,-0.9979248046875,2.99072265625,-0.42724609375,1.708984375
22400.92499025,-0.1785888671875,0.039794921875,-0.9979248046875,2.99072265625,-0.54931640625,1.708984375
22400.925105041,-0.1785888671875,0.039794921875,-0.9979248046875,2.99072265625,-0.54931640625,1.8310546875
22400.941959916,-0.1781005859375,0.039794921875,-0.9979248046875,2.99072265625,-0.54931640625,1.8310546875
22400.942107625,-0.1781005859375,0.04150390625,-0.9979248046875,2.99072265625,-0.54931640625,1.8310546875
22400.942194375,-0.1781005859375,0.04150390625,-0.996826171875,2.99072265625,-0.54931640625,1.8310546875
22400.952100375,-0.1781005859375,0.04150390625,-0.996826171875,2.99072265625,-0.3662109375,1.8310546875
22400.958202875,-0.1781005859375,0.04150390625,-0.996826171875,2.99072265625,-0.3662109375,1.77001953125
22400.966265958,-0.1763916015625,0.04150390625,-0.996826171875,2.99072265625,-0.3662109375,1.77001953125
22400.966457583,-0.1763916015625,0.0408935546875,-0.996826171875,2.99072265625,-0.3662109375,1.77001953125
22400.967148958,-0.1763916015625,0.0408935546875,-0.993408203125,2.99072265625,-0.3662109375,1.77001953125
22400.981647583,-0.1763916015625,0.0408935546875,-0.993408203125,2.99072265625,-0.48828125,1.77001953125
22400.981833166,-0.1763916015625,0.0408935546875,-0.993408203125,2.99072265625,-0.48828125,1.708984375
22401.011482666,-0.17626953125,0.0408935546875,-0.993408203125,2.99072265625,-0.48828125,1.708984375
22401.012940166,-0.17626953125,0.0426025390625,-0.993408203125,2.99072265625,-0.48828125,1.708984375
22401.017952041,-0.17626953125,0.0426025390625,-0.9981689453125,2.99072265625,-0.48828125,1.708984375
22401.018070583,-0.17626953125,0.0426025390625,-0.9981689453125,2.99072265625,-0.6103515625,1.708984375
22401.026132,-0.176025390625,0.0426025390625,-0.9981689453125,2.99072265625,-0.6103515625,1.708984375
22401.0263985,-0.176025390625,0.0439453125,-0.9981689453125,2.99072265625,-0.6103515625,1.708984375
22401.02718825,-0.176025390625,0.0439453125,-0.9990234375,2.99072265625,-0.6103515625,1.708984375
22401.041732,-0.176025390625,0.0439453125,-0.9990234375,2.99072265625,-0.3662109375,1.708984375
22401.041828291,-0.176025390625,0.0439453125,-0.9990234375,2.99072265625,-0.3662109375,2.0751953125
22401.058779333,-0.1776123046875,0.0439453125,-0.9990234375,2.99072265625,-0.3662109375,2.0751953125
22401.058882833,-0.1776123046875,0.043701171875,-0.9990234375,2.99072265625,-0.3662109375,2.0751953125
22401.058969416,-0.1776123046875,0.043701171875,-0.9990234375,2.99072265625,-0.3662109375,2.0751953125
22401.075199833,-0.1776123046875,0.043701171875,-0.9990234375,2.99072265625,-0.3662109375,2.0751953125
22401.075278625,-0.1776123046875,0.043701171875,-0.9990234375,2.99072265625,-0.3662109375,1.953125
22401.086131916,-0.17822265625,0.043701171875,-0.9990234375,2.99072265625,-0.3662109375,1.953125
22401.091375666,-0.17822265625,0.040283203125,-0.9990234375,2.99072265625,-0.3662109375,1.953125
22401.091462458,-0.17822265625,0.040283203125,-0.9940185546875,2.99072265625,-0.3662109375,1.953125
22401.10178375,-0.17822265625,0.040283203125,-0.9940185546875,2.99072265625,-0.54931640625,1.953125
22401.108169416,-0.17822265625,0.040283203125,-0.9940185546875,2.99072265625,-0.54931640625,1.708984375
22401.116564,-0.1783447265625,0.040283203125,-0.9940185546875,2.99072265625,-0.54931640625,1.708984375
22401.131243708,-0.1783447265625,0.041259765625,-0.9940185546875,2.99072265625,-0.54931640625,1.708984375
22401.131407416,-0.1783447265625,0.041259765625,-0.990234375,2.99072265625,-0.54931640625,1.708984375
22401.132160833,-0.1783447265625,0.041259765625,-0.990234375,2.99072265625,-0.6103515625,1.708984375
22401.132298166,-0.1783447265625,0.041259765625,-0.990234375,2.99072265625,-0.6103515625,1.953125
22401.147049416,-0.1793212890625,0.041259765625,-0.990234375,2.99072265625,-0.6103515625,1.953125
22401.147270833,-0.1793212890625,0.041748046875,-0.990234375,2.99072265625,-0.6103515625,1.953125
22401.147393666,-0.1793212890625,0.041748046875,-1.002197265625,2.99072265625,-0.6103515625,1.953125
22401.161426958,-0.1793212890625,0.041748046875,-1.002197265625,2.99072265625,-0.67138671875,1.953125
22401.161629416,-0.1793212890625,0.041748046875,-1.002197265625,2.99072265625,-0.67138671875,1.8310546875
22401.175988375,-0.17431640625,0.041748046875,-1.002197265625,2.99072265625,-0.67138671875,1.8310546875
22401.176147541,-0.17431640625,0.0428466796875,-1.002197265625,2.99072265625,-0.67138671875,1.8310546875
22401.178310666,-0.17431640625,0.0428466796875,-0.9996337890625,2.99072265625,-0.67138671875,1.8310546875
22401.1913105,-0.17431640625,0.0428466796875,-0.9996337890625,2.99072265625,-0.6103515625,1.8310546875
22401.191481833,-0.17431640625,0.0428466796875,-0.9996337890625,2.99072265625,-0.6103515625,1.89208984375
22401.207621541,-0.1741943359375,0.0428466796875,-0.9996337890625,2.99072265625,-0.6103515625,1.89208984375
22401.207695958,-0.1741943359375,0.042724609375,-0.9996337890625,2.99072265625,-0.6103515625,1.89208984375
22401.207768583,-0.1741943359375,0.042724609375,-0.9949951171875,2.99072265625,-0.6103515625,1.89208984375
22401.267156833,-0.1741943359375,0.042724609375,-0.9949951171875,2.99072265625,-0.30517578125,1.89208984375
22401.267586291,-0.1741943359375,0.042724609375,-0.9949951171875,2.99072265625,-0.30517578125,1.77001953125
22401.267717291,-0.1751708984375,0.042724609375,-0.9949951171875,2.99072265625,-0.30517578125,1.77001953125
22401.267809125,-0.1751708984375,0.042724609375,-0.993408203125,2.99072265625,-0.30517578125,1.77001953125
22401.296225625,-0.1751708984375,0.042724609375,-0.993408203125,2.99072265625,-0.3662109375,1.77001953125
22401.296372333,-0.1751708984375,0.042724609375,-0.993408203125,2.99072265625,-0.3662109375,1.77001953125
22401.311302791,-0.176513671875,0.042724609375,-0.993408203125,2.99072265625,-0.3662109375,1.77001953125
22401.311482541,-0.176513671875,0.0418701171875,-0.993408203125,2.99072265625,-0.3662109375,1.77001953125
22401.312483458,-0.176513671875,0.0418701171875,-0.993408203125,2.99072265625,-0.48828125,1.77001953125
22401.312627333,-0.176513671875,0.0418701171875,-0.993408203125,2.99072265625,-0.48828125,1.708984375
22401.343254125,-0.17626953125,0.0418701171875,-0.993408203125,2.99072265625,-0.48828125,1.708984375
22401.343424666,-0.17626953125,0.0396728515625,-0.993408203125,2.99072265625,-0.48828125,1.708984375
22401.345406666,-0.17626953125,0.0396728515625,-0.99365234375,2.99072265625,-0.48828125,1.708984375
22401.349186166,-0.17626953125,0.0396728515625,-0.99365234375,2.685546875,-0.48828125,1.708984375
22401.371324666,-0.179931640625,0.0396728515625,-0.99365234375,2.685546875,-0.48828125,1.708984375
22401.3715075,-0.179931640625,0.0408935546875,-0.99365234375,2.685546875,-0.48828125,1.708984375
22401.372357833,-0.179931640625,0.0408935546875,-0.9951171875,2.685546875,-0.48828125,1.708984375
22401.372534916,-0.179931640625,0.0408935546875,-0.9951171875,2.685546875,-0.48828125,1.708984375
22401.391100333,-0.1783447265625,0.0408935546875,-0.9951171875,2.685546875,-0.48828125,1.708984375
22401.391171916,-0.1783447265625,0.04150390625,-0.9951171875,2.685546875,-0.48828125,1.708984375
22401.391231458,-0.1783447265625,0.04150390625,-0.997314453125,2.685546875,-0.48828125,1.708984375
22401.407913083,-0.1783447265625,0.04150390625,-0.997314453125,2.685546875,-0.6103515625,1.708984375
22401.407976291,-0.1783447265625,0.04150390625,-0.997314453125,2.685546875,-0.6103515625,1.46484375
22401.417580291,-0.1787109375,0.04150390625,-0.997314453125,2.685546875,-0.6103515625,1.46484375
22401.424032541,-0.1787109375,0.04345703125,-0.997314453125,2.685546875,-0.6103515625,1.46484375
22401.424094916,-0.1787109375,0.04345703125,-0.99951171875,2.685546875,-0.6103515625,1.46484375
22401.433175916,-0.1787109375,0.04345703125,-0.99951171875,2.685546875,-0.42724609375,1.46484375
22401.433312625,-0.1787109375,0.04345703125,-0.99951171875,2.685546875,-0.42724609375,1.8310546875
22401.477106,-0.1767578125,0.04345703125,-0.99951171875,2.685546875,-0.42724609375,1.8310546875
22401.477760916,-0.1767578125,0.041748046875,-0.99951171875,2.685546875,-0.42724609375,1.8310546875
22401.492467375,-0.1767578125,0.041748046875,-0.994140625,2.685546875,-0.42724609375,1.8310546875
22401.492674208,-0.1767578125,0.041748046875,-0.994140625,2.13623046875,-0.42724609375,1.8310546875
22401.508159125,-0.176025390625,0.041748046875,-0.994140625,2.13623046875,-0.42724609375,1.8310546875
22401.524880708,-0.176025390625,0.03955078125,-0.994140625,2.13623046875,-0.42724609375,1.8310546875
22401.524972291,-0.176025390625,0.03955078125,-0.994140625,2.685546875,-0.42724609375,1.8310546875
22401.541536833,-0.176025390625,0.03955078125,-0.994140625,2.685546875,-0.732421875,1.8310546875
22401.541628666,-0.1748046875,0.03955078125,-0.994140625,2.685546875,-0.732421875,1.8310546875
22401.541712208,-0.1748046875,0.03955078125,-1.0003662109375,2.685546875,-0.732421875,1.8310546875
22401.541795041,-0.1748046875,0.03955078125,-1.0003662109375,3.0517578125,-0.732421875,1.8310546875
22401.551091375,-0.1748046875,0.03955078125,-1.0003662109375,3.0517578125,-0.732421875,1.52587890625
22401.5835465,-0.177490234375,0.03955078125,-1.0003662109375,3.0517578125,-0.732421875,1.52587890625
22401.583805125,-0.177490234375,0.044189453125,-1.0003662109375,3.0517578125,-0.732421875,1.52587890625
22401.587411125,-0.177490234375,0.044189453125,-0.994873046875,3.0517578125,-0.732421875,1.52587890625
22401.587642458,-0.177490234375,0.044189453125,-0.994873046875,3.72314453125,-0.732421875,1.52587890625
22401.608331083,-0.1767578125,0.044189453125,-0.994873046875,3.72314453125,-0.732421875,1.52587890625
22401.626213833,-0.1767578125,0.046142578125,-0.994873046875,3.72314453125,-0.732421875,1.52587890625
22401.626370583,-0.1767578125,0.046142578125,-0.99658203125,3.72314453125,-0.732421875,1.52587890625
22401.627481125,-0.1767578125,0.046142578125,-0.99658203125,3.72314453125,-0.79345703125,1.52587890625
22401.642805458,-0.1767578125,0.046142578125,-0.99658203125,3.72314453125,-0.79345703125,1.220703125
22401.643129291,-0.17236328125,0.046142578125,-0.99658203125,3.72314453125,-0.79345703125,1.220703125
22401.643244,-0.17236328125,0.0430908203125,-0.99658203125,3.72314453125,-0.79345703125,1.220703125
22401.643327666,-0.17236328125,0.0430908203125,-0.994873046875,3.72314453125,-0.79345703125,1.220703125
22401.689134458,-0.17236328125,0.0430908203125,-0.994873046875,3.72314453125,-0.79345703125,1.3427734375
22401.689363125,-0.169921875,0.0430908203125,-0.994873046875,3.72314453125,-0.79345703125,1.3427734375
22401.690783458,-0.169921875,0.041259765625,-0.994873046875,3.72314453125,-0.79345703125,1.3427734375
22401.70280625,-0.169921875,0.041259765625,-0.9884033203125,3.72314453125,-0.79345703125,1.3427734375
22401.703243458,-0.169921875,0.041259765625,-0.9884033203125,3.72314453125,-2.3193359375,1.3427734375
22401.703411916,-0.169921875,0.041259765625,-0.9884033203125,3.72314453125,-2.3193359375,0.54931640625
22401.745686875,-0.16357421875,0.041259765625,-0.9884033203125,3.72314453125,-2.3193359375,0.54931640625
22401.748514333,-0.16357421875,0.036865234375,-0.9884033203125,3.72314453125,-2.3193359375,0.54931640625
22401.74905775,-0.16357421875,0.036865234375,-0.9993896484375,3.72314453125,-2.3193359375,0.54931640625
22401.749327541,-0.16357421875,0.036865234375,-0.9993896484375,2.3193359375,-2.3193359375,0.54931640625
22401.778409875,-0.17431640625,0.036865234375,-0.9993896484375,2.3193359375,-2.3193359375,0.54931640625
22401.778654791,-0.17431640625,0.0462646484375,-0.9993896484375,2.3193359375,-2.3193359375,0.54931640625
22401.77872975,-0.17431640625,0.0462646484375,-1.0009765625,2.3193359375,-2.3193359375,0.54931640625
22401.778835416,-0.17431640625,0.0462646484375,-1.0009765625,2.3193359375,-3.7841796875,0.54931640625
22401.807072791,-0.17041015625,0.0462646484375,-1.0009765625,2.3193359375,-3.7841796875,0.54931640625
22401.8212345,-0.17041015625,0.05224609375,-1.0009765625,2.3193359375,-3.7841796875,0.54931640625
22401.8214135,-0.17041015625,0.05224609375,-1.005615234375,2.3193359375,-3.7841796875,0.54931640625
22401.822334916,-0.17041015625,0.05224609375,-1.005615234375,3.23486328125,-3.7841796875,0.54931640625
22401.822497041,-0.1661376953125,0.05224609375,-1.005615234375,3.23486328125,-3.7841796875,0.54931640625
22401.852927333,-0.1661376953125,0.05224609375,-0.998291015625,3.23486328125,-3.7841796875,0.54931640625
22401.853137666,-0.1661376953125,0.05224609375,-0.998291015625,-0.3662109375,-3.7841796875,0.54931640625
22401.853214666,-0.1661376953125,0.05224609375,-0.998291015625,-0.3662109375,0.244140625,0.54931640625
22401.874430583,-0.1707763671875,0.05224609375,-0.998291015625,-0.3662109375,0.244140625,0.54931640625
22401.874508958,-0.1707763671875,0.08154296875,-0.998291015625,-0.3662109375,0.244140625,0.54931640625
22401.882424625,-0.1707763671875,0.08154296875,-0.998291015625,-0.3662109375,0.06103515625,0.54931640625
22401.882614916,-0.1707763671875,0.08154296875,-0.998291015625,-0.3662109375,0.06103515625,3.23486328125
22401.897202833,-0.1837158203125,0.08154296875,-0.998291015625,-0.3662109375,0.06103515625,3.23486328125
22401.89738625,-0.1837158203125,0.059326171875,-0.998291015625,-0.3662109375,0.06103515625,3.23486328125
22401.897488416,-0.1837158203125,0.059326171875,-0.9981689453125,-0.3662109375,0.06103515625,3.23486328125
22401.92656175,-0.1837158203125,0.059326171875,-0.9981689453125,-0.3662109375,-0.18310546875,3.23486328125
22401.926772458,-0.1837158203125,0.059326171875,-0.9981689453125,-0.3662109375,-0.18310546875,3.2958984375
22401.956797333,-0.171630859375,0.059326171875,-0.9981689453125,-0.3662109375,-0.18310546875,3.2958984375
22401.956895041,-0.171630859375,0.048583984375,-0.9981689453125,-0.3662109375,-0.18310546875,3.2958984375
22402.001760333,-0.171630859375,0.048583984375,-1.0023193359375,-0.3662109375,-0.18310546875,3.2958984375
22402.00223325,-0.1705322265625,0.048583984375,-1.0023193359375,-0.3662109375,-0.18310546875,3.2958984375
22402.002572583,-0.1705322265625,0.046630859375,-1.0023193359375,-0.3662109375,-0.18310546875,3.2958984375
22402.00281975,-0.1705322265625,0.046630859375,-0.996337890625,-0.3662109375,-0.18310546875,3.2958984375
22402.016700416,-0.1705322265625,0.046630859375,-0.996337890625,-0.3662109375,-0.18310546875,2.8076171875
22402.041719875,-0.1624755859375,0.046630859375,-0.996337890625,-0.3662109375,-0.18310546875,2.8076171875
22402.041802583,-0.1624755859375,0.0379638671875,-0.996337890625,-0.3662109375,-0.18310546875,2.8076171875
22402.041872,-0.1624755859375,0.0379638671875,-0.9990234375,-0.3662109375,-0.18310546875,2.8076171875
22402.046708833,-0.1624755859375,0.0379638671875,-0.9990234375,-0.3662109375,-1.52587890625,2.8076171875
22402.046871875,-0.1624755859375,0.0379638671875,-0.9990234375,-0.3662109375,-1.52587890625,1.28173828125
22402.061599291,-0.156982421875,0.0379638671875,-0.9990234375,-0.3662109375,-1.52587890625,1.28173828125
22402.061738541,-0.156982421875,0.0489501953125,-0.9990234375,-0.3662109375,-1.52587890625,1.28173828125
22402.062401958,-0.156982421875,0.0489501953125,-0.9979248046875,-0.3662109375,-1.52587890625,1.28173828125
22402.120526125,-0.156982421875,0.0489501953125,-0.9979248046875,-0.3662109375,-1.953125,1.28173828125
22402.122463458,-0.156982421875,0.0489501953125,-0.9979248046875,-0.3662109375,-1.953125,0.3662109375
22402.122713833,-0.176025390625,0.0489501953125,-0.9979248046875,-0.3662109375,-1.953125,0.3662109375
22402.123958583,-0.176025390625,0.041015625,-0.9979248046875,-0.3662109375,-1.953125,0.3662109375
22402.136815791,-0.176025390625,0.041015625,-0.9979248046875,-0.3662109375,-0.79345703125,0.3662109375
22402.137063125,-0.176025390625,0.041015625,-0.9979248046875,-0.3662109375,-0.79345703125,0.06103515625
22402.181720458,-0.1693115234375,0.041015625,-0.9979248046875,-0.3662109375,-0.79345703125,0.06103515625
22402.181925166,-0.1693115234375,0.0477294921875,-0.9979248046875,-0.3662109375,-0.79345703125,0.06103515625
22402.182528375,-0.1693115234375,0.0477294921875,-0.99609375,-0.3662109375,-0.79345703125,0.06103515625
22402.184123666,-0.1693115234375,0.0477294921875,-0.99609375,1.64794921875,-0.79345703125,0.06103515625
22402.211113666,-0.1590576171875,0.0477294921875,-0.99609375,1.64794921875,-0.79345703125,0.06103515625
22402.211259041,-0.1590576171875,0.04931640625,-0.99609375,1.64794921875,-0.79345703125,0.06103515625
22402.212356958,-0.1590576171875,0.04931640625,-0.998291015625,1.64794921875,-0.79345703125,0.06103515625
22402.212490041,-0.1590576171875,0.04931640625,-0.998291015625,1.64794921875,-0.732421875,0.06103515625
22402.227713791,-0.1600341796875,0.04931640625,-0.998291015625,1.64794921875,-0.732421875,0.06103515625
22402.227940833,-0.1600341796875,0.0546875,-0.998291015625,1.64794921875,-0.732421875,0.06103515625
22402.228011375,-0.1600341796875,0.0546875,-1.003662109375,1.64794921875,-0.732421875,0.06103515625
22402.286945458,-0.1600341796875,0.0546875,-1.003662109375,1.64794921875,-0.18310546875,0.06103515625
22402.287076916,-0.1600341796875,0.0546875,-1.003662109375,1.64794921875,-0.18310546875,1.0986328125
22402.287487458,-0.1553955078125,0.0546875,-1.003662109375,1.64794921875,-0.18310546875,1.0986328125
22402.28786175,-0.1553955078125,0.05126953125,-1.003662109375,1.64794921875,-0.18310546875,1.0986328125
22402.316924916,-0.1553955078125,0.05126953125,-1.003662109375,1.64794921875,-0.30517578125,1.0986328125
22402.317188,-0.1553955078125,0.05126953125,-1.003662109375,1.64794921875,-0.30517578125,1.46484375
22402.317549791,-0.176513671875,0.05126953125,-1.003662109375,1.64794921875,-0.30517578125,1.46484375
22402.317789916,-0.176513671875,0.044677734375,-1.003662109375,1.64794921875,-0.30517578125,1.46484375
22402.332025041,-0.176513671875,0.044677734375,-1.003662109375,1.64794921875,-0.6103515625,1.46484375
22402.33214875,-0.176513671875,0.044677734375,-1.003662109375,1.64794921875,-0.6103515625,2.3193359375
22402.361622541,-0.1663818359375,0.044677734375,-1.003662109375,1.64794921875,-0.6103515625,2.3193359375
22402.361905875,-0.1663818359375,0.037353515625,-1.003662109375,1.64794921875,-0.6103515625,2.3193359375
22402.362535958,-0.1663818359375,0.037353515625,-0.9979248046875,1.64794921875,-0.6103515625,2.3193359375
22402.36279125,-0.1663818359375,0.037353515625,-0.9979248046875,-0.6103515625,-0.6103515625,2.3193359375
22402.376310958,-0.1739501953125,0.037353515625,-0.9979248046875,-0.6103515625,-0.6103515625,2.3193359375
22402.376441458,-0.1739501953125,0.0445556640625,-0.9979248046875,-0.6103515625,-0.6103515625,2.3193359375
22402.377250625,-0.1739501953125,0.0445556640625,-1.0010986328125,-0.6103515625,-0.6103515625,2.3193359375
22402.392693458,-0.1739501953125,0.0445556640625,-1.0010986328125,-0.6103515625,0.48828125,2.3193359375
22402.421411541,-0.1739501953125,0.0445556640625,-1.0010986328125,-0.6103515625,0.48828125,3.41796875
22402.421743916,-0.1820068359375,0.0445556640625,-1.0010986328125,-0.6103515625,0.48828125,3.41796875
22402.422842375,-0.1820068359375,0.046142578125,-1.0010986328125,-0.6103515625,0.48828125,3.41796875
22402.42306875,-0.1820068359375,0.046142578125,-1.00537109375,-0.6103515625,0.48828125,3.41796875
22402.442189958,-0.1820068359375,0.046142578125,-1.00537109375,-0.6103515625,1.0986328125,3.41796875
22402.451493291,-0.1820068359375,0.046142578125,-1.00537109375,-0.6103515625,1.0986328125,2.99072265625
22402.482031666,-0.1588134765625,0.046142578125,-1.00537109375,-0.6103515625,1.0986328125,2.99072265625
22402.482394,-0.1588134765625,0.0423583984375,-1.00537109375,-0.6103515625,1.0986328125,2.99072265625
22402.482595916,-0.1588134765625,0.0423583984375,-1.0172119140625,-0.6103515625,1.0986328125,2.99072265625
22402.512568958,-0.1588134765625,0.0423583984375,-1.0172119140625,-0.6103515625,3.0517578125,2.99072265625
22402.512826791,-0.1614990234375,0.0423583984375,-1.0172119140625,-0.6103515625,3.0517578125,2.99072265625
22402.512960541,-0.1614990234375,0.02490234375,-1.0172119140625,-0.6103515625,3.0517578125,2.99072265625
22402.514197375,-0.1614990234375,0.02490234375,-0.992431640625,-0.6103515625,3.0517578125,2.99072265625
22402.526497,-0.1614990234375,0.02490234375,-0.992431640625,-0.6103515625,3.35693359375,2.99072265625
22402.526665125,-0.1614990234375,0.02490234375,-0.992431640625,-0.6103515625,3.35693359375,5.92041015625
22402.541721125,-0.1697998046875,0.02490234375,-0.992431640625,-0.6103515625,3.35693359375,5.92041015625
22402.541812375,-0.1697998046875,0.0081787109375,-0.992431640625,-0.6103515625,3.35693359375,5.92041015625
22402.541993166,-0.1697998046875,0.0081787109375,-1.007568359375,-0.6103515625,3.35693359375,5.92041015625
22402.558202291,-0.1697998046875,0.0081787109375,-1.007568359375,-0.6103515625,3.0517578125,5.92041015625
22402.558295333,-0.1697998046875,0.0081787109375,-1.007568359375,-0.6103515625,3.0517578125,8.11767578125
22402.586325708,-0.14306640625,0.0081787109375,-1.007568359375,-0.6103515625,3.0517578125,8.11767578125
22402.586520916,-0.14306640625,0.255859375,-1.007568359375,-0.6103515625,3.0517578125,8.11767578125
22402.588002375,-0.14306640625,0.255859375,-0.996826171875,-0.6103515625,3.0517578125,8.11767578125
22402.588167458,-0.14306640625,0.255859375,-0.996826171875,-0.6103515625,3.2958984375,8.11767578125
22402.608481791,-0.1640625,0.255859375,-0.996826171875,-0.6103515625,3.2958984375,8.11767578125
22402.608581041,-0.1640625,0.0172119140625,-0.996826171875,-0.6103515625,3.2958984375,8.11767578125
22402.60866675,-0.1640625,0.0172119140625,-1.0009765625,-0.6103515625,3.2958984375,8.11767578125
22402.616840708,-0.1640625,0.0172119140625,-1.0009765625,-0.6103515625,3.41796875,8.11767578125
22402.617073625,-0.1640625,0.0172119140625,-1.0009765625,-0.6103515625,3.41796875,4.5166015625
22402.631133958,-0.184326171875,0.0172119140625,-1.0009765625,-0.6103515625,3.41796875,4.5166015625
22402.6313375,-0.184326171875,0.0081787109375,-1.0009765625,-0.6103515625,3.41796875,4.5166015625
22402.633094541,-0.184326171875,0.0081787109375,-0.98486328125,-0.6103515625,3.41796875,4.5166015625
22402.647282958,-0.184326171875,0.0081787109375,-0.98486328125,-0.6103515625,5.0048828125,4.5166015625
22402.647485041,-0.184326171875,0.0081787109375,-0.98486328125,-0.6103515625,5.0048828125,10.43701171875
22402.662805,-0.23681640625,0.0081787109375,-0.98486328125,-0.6103515625,5.0048828125,10.43701171875
22402.663062166,-0.23681640625,-0.1649169921875,-0.98486328125,-0.6103515625,5.0048828125,10.43701171875
22402.663160791,-0.23681640625,-0.1649169921875,-0.9669189453125,-0.6103515625,5.0048828125,10.43701171875
22402.677740666,-0.23681640625,-0.1649169921875,-0.9669189453125,-0.6103515625,0.42724609375,10.43701171875
22402.677910125,-0.23681640625,-0.1649169921875,-0.9669189453125,-0.6103515625,0.42724609375,6.9580078125
22402.707281875,-0.205322265625,-0.1649169921875,-0.9669189453125,-0.6103515625,0.42724609375,6.9580078125
22402.711767791,-0.205322265625,-0.0794677734375,-0.9669189453125,-0.6103515625,0.42724609375,6.9580078125
22402.711920625,-0.205322265625,-0.0794677734375,-0.972900390625,-0.6103515625,0.42724609375,6.9580078125
22402.724907833,-0.205322265625,-0.0794677734375,-0.972900390625,4.5166015625,0.42724609375,6.9580078125
22402.725005875,-0.184326171875,-0.0794677734375,-0.972900390625,4.5166015625,0.42724609375,6.9580078125
22402.72507775,-0.184326171875,-0.010009765625,-0.972900390625,4.5166015625,0.42724609375,6.9580078125
22402.725163208,-0.184326171875,-0.010009765625,-0.9765625,4.5166015625,0.42724609375,6.9580078125
22402.741736916,-0.184326171875,-0.010009765625,-0.9765625,4.5166015625,-1.03759765625,6.9580078125
22402.741814875,-0.184326171875,-0.010009765625,-0.9765625,4.5166015625,-1.03759765625,4.69970703125
22402.751392291,-0.1878662109375,-0.010009765625,-0.9765625,4.5166015625,-1.03759765625,4.69970703125
22402.751565416,-0.1878662109375,-0.008544921875,-0.9765625,4.5166015625,-1.03759765625,4.69970703125
22402.757766541,-0.1878662109375,-0.008544921875,-0.9906005859375,4.5166015625,-1.03759765625,4.69970703125
22402.782167833,-0.1878662109375,-0.008544921875,-0.9906005859375,4.5166015625,-2.74658203125,4.69970703125
22402.782346375,-0.1878662109375,-0.008544921875,-0.9906005859375,4.5166015625,-2.74658203125,3.0517578125
22402.811828958,-0.179443359375,-0.008544921875,-0.9906005859375,4.5166015625,-2.74658203125,3.0517578125
22402.816034208,-0.179443359375,0.000732421875,-0.9906005859375,4.5166015625,-2.74658203125,3.0517578125
22402.816114708,-0.179443359375,0.000732421875,-0.9906005859375,4.5166015625,-3.5400390625,3.0517578125
22402.816187208,-0.179443359375,0.000732421875,-0.9906005859375,4.5166015625,-3.5400390625,1.03759765625
22402.8413465,-0.1832275390625,0.000732421875,-0.9906005859375,4.5166015625,-3.5400390625,1.03759765625
22402.841432958,-0.1832275390625,0.012939453125,-0.9906005859375,4.5166015625,-3.5400390625,1.03759765625
22402.84150475,-0.1832275390625,0.012939453125,-1.0064697265625,4.5166015625,-3.5400390625,1.03759765625
22402.841686208,-0.1832275390625,0.012939453125,-1.0064697265625,4.5166015625,-3.5400390625,0.30517578125
22402.858091916,-0.182861328125,0.012939453125,-1.0064697265625,4.5166015625,-3.5400390625,0.30517578125
22402.858162166,-0.182861328125,0.0263671875,-1.0064697265625,4.5166015625,-3.5400390625,0.30517578125
22402.858232333,-0.182861328125,0.0263671875,-1.0006103515625,4.5166015625,-3.5400390625,0.30517578125
22402.874473958,-0.182861328125,0.0263671875,-1.0006103515625,4.5166015625,-2.25830078125,0.30517578125
22402.874551291,-0.182861328125,0.0263671875,-1.0006103515625,4.5166015625,-2.25830078125,-0.30517578125
22402.9016345,-0.18115234375,0.0263671875,-1.0006103515625,4.5166015625,-2.25830078125,-0.30517578125
22402.907539833,-0.18115234375,0.0255126953125,-1.0006103515625,4.5166015625,-2.25830078125,-0.30517578125
22402.907774916,-0.18115234375,0.0255126953125,-0.9962158203125,4.5166015625,-2.25830078125,-0.30517578125
22402.907848,-0.18115234375,0.0255126953125,-0.9962158203125,6.16455078125,-2.25830078125,-0.30517578125
22402.916137916,-0.1832275390625,0.0255126953125,-0.9962158203125,6.16455078125,-2.25830078125,-0.30517578125
22402.916277958,-0.1832275390625,0.0250244140625,-0.9962158203125,6.16455078125,-2.25830078125,-0.30517578125
22402.916967916,-0.1832275390625,0.0250244140625,-1.000732421875,6.16455078125,-2.25830078125,-0.30517578125
22402.931539958,-0.1832275390625,0.0250244140625,-1.000732421875,6.16455078125,-2.50244140625,-0.30517578125
22402.931688375,-0.1832275390625,0.0250244140625,-1.000732421875,6.16455078125,-2.50244140625,0.3662109375
22402.946499791,-0.1793212890625,0.0250244140625,-1.000732421875,6.16455078125,-2.50244140625,0.3662109375
22402.96125825,-0.1793212890625,0.0234375,-1.000732421875,6.16455078125,-2.50244140625,0.3662109375
22402.961461958,-0.1793212890625,0.0234375,-1.008544921875,6.16455078125,-2.50244140625,0.3662109375
22402.962613708,-0.1793212890625,0.0234375,-1.008544921875,6.16455078125,-1.708984375,0.3662109375
22402.962886041,-0.1793212890625,0.0234375,-1.008544921875,6.16455078125,-1.708984375,-0.244140625
22403.006631625,-0.1845703125,0.0234375,-1.008544921875,6.16455078125,-1.708984375,-0.244140625
22403.021108791,-0.1845703125,0.0377197265625,-1.008544921875,6.16455078125,-1.708984375,-0.244140625
22403.025031166,-0.1845703125,0.0377197265625,-0.99560546875,6.16455078125,-1.708984375,-0.244140625
22403.025122375,-0.1845703125,0.0377197265625,-0.99560546875,4.39453125,-1.708984375,-0.244140625
22403.025206125,-0.18115234375,0.0377197265625,-0.99560546875,4.39453125,-1.708984375,-0.244140625
22403.041549625,-0.18115234375,0.0377197265625,-1.000732421875,4.39453125,-1.708984375,-0.244140625
22403.051738541,-0.18115234375,0.0377197265625,-1.000732421875,2.0751953125,-1.708984375,-0.244140625
22403.058096666,-0.18115234375,0.0377197265625,-1.000732421875,2.0751953125,-1.03759765625,-0.244140625
22403.081502291,-0.169189453125,0.0377197265625,-1.000732421875,2.0751953125,-1.03759765625,-0.244140625
22403.081683083,-0.169189453125,0.0400390625,-1.000732421875,2.0751953125,-1.03759765625,-0.244140625
22403.082496166,-0.169189453125,0.0400390625,-0.989990234375,2.0751953125,-1.03759765625,-0.244140625
22403.082674125,-0.169189453125,0.0400390625,-0.989990234375,2.0751953125,-1.03759765625,3.11279296875
22403.126051083,-0.1728515625,0.0400390625,-0.989990234375,2.0751953125,-1.03759765625,3.11279296875
22403.127114875,-0.1728515625,0.02978515625,-0.989990234375,2.0751953125,-1.03759765625,3.11279296875
22403.132085541,-0.1728515625,0.02978515625,-1.011962890625,2.0751953125,-1.03759765625,3.11279296875
22403.132398541,-0.1728515625,0.02978515625,-1.011962890625,-8.1787109375,-1.03759765625,3.11279296875
22403.157936,-0.1639404296875,0.02978515625,-1.011962890625,-8.1787109375,-1.03759765625,3.11279296875
22403.158012291,-0.1639404296875,0.052734375,-1.011962890625,-8.1787109375,-1.03759765625,3.11279296875
22403.158081875,-0.1639404296875,0.052734375,-1.0106201171875,-8.1787109375,-1.03759765625,3.11279296875
22403.174737541,-0.1639404296875,0.052734375,-1.0106201171875,-8.1787109375,-3.2958984375,3.11279296875
22403.174816,-0.1639404296875,0.052734375,-1.0106201171875,-8.1787109375,-3.2958984375,-0.54931640625
22403.191016166,-0.1832275390625,0.052734375,-1.0106201171875,-8.1787109375,-3.2958984375,-0.54931640625
22403.191096833,-0.1832275390625,0.0198974609375,-1.0106201171875,-8.1787109375,-3.2958984375,-0.54931640625
22403.191167916,-0.1832275390625,0.0198974609375,-1.0125732421875,-8.1787109375,-3.2958984375,-0.54931640625
22403.23342325,-0.14697265625,0.0198974609375,-1.0125732421875,-8.1787109375,-3.2958984375,-0.54931640625
22403.233740625,-0.14697265625,0.1103515625,-1.0125732421875,-8.1787109375,-3.2958984375,-0.54931640625
22403.233868541,-0.14697265625,0.1103515625,-1.0157470703125,-8.1787109375,-3.2958984375,-0.54931640625
22403.233954208,-0.14697265625,0.1103515625,-1.0157470703125,5.79833984375,-3.2958984375,-0.54931640625
22403.257943958,-0.1495361328125,0.1103515625,-1.0157470703125,5.79833984375,-3.2958984375,-0.54931640625
22403.258017291,-0.1495361328125,0.0968017578125,-1.0157470703125,5.79833984375,-3.2958984375,-0.54931640625
22403.258088375,-0.1495361328125,0.0968017578125,-1.0281982421875,5.79833984375,-3.2958984375,-0.54931640625
22403.2616675,-0.1495361328125,0.0968017578125,-1.0281982421875,5.79833984375,-3.2958984375,3.84521484375
22403.291678708,-0.1187744140625,0.0968017578125,-1.0281982421875,5.79833984375,-3.2958984375,3.84521484375
22403.291982708,-0.1187744140625,0.119140625,-1.0281982421875,5.79833984375,-3.2958984375,3.84521484375
22403.292096333,-0.1187744140625,0.119140625,-1.030029296875,5.79833984375,-3.2958984375,3.84521484375
22403.292553666,-0.1187744140625,0.119140625,-1.030029296875,10.68115234375,-3.2958984375,3.84521484375
22403.307931166,-0.1220703125,0.119140625,-1.030029296875,10.68115234375,-3.2958984375,3.84521484375
22403.336326458,-0.1220703125,0.130615234375,-1.030029296875,10.68115234375,-3.2958984375,3.84521484375
22403.338951541,-0.1220703125,0.130615234375,-1.0152587890625,10.68115234375,-3.2958984375,3.84521484375
22403.339155208,-0.1220703125,0.130615234375,-1.0152587890625,10.68115234375,1.46484375,3.84521484375
22403.339227125,-0.1241455078125,0.130615234375,-1.0152587890625,10.68115234375,1.46484375,3.84521484375
22403.357899333,-0.1241455078125,0.130615234375,-0.98291015625,10.68115234375,1.46484375,3.84521484375
22403.357981166,-0.1241455078125,0.130615234375,-0.98291015625,17.7001953125,1.46484375,3.84521484375
22403.358051208,-0.1241455078125,0.130615234375,-0.98291015625,17.7001953125,2.01416015625,3.84521484375
22403.366214541,-0.13037109375,0.130615234375,-0.98291015625,17.7001953125,2.01416015625,3.84521484375
22403.39549875,-0.13037109375,0.1458740234375,-0.98291015625,17.7001953125,2.01416015625,3.84521484375
22403.4420295,-0.13037109375,0.1458740234375,-0.9654541015625,17.7001953125,2.01416015625,3.84521484375
22403.442518333,-0.13037109375,0.1458740234375,-0.9654541015625,17.7001953125,0.8544921875,3.84521484375
22403.4427985,-0.13037109375,0.1458740234375,-0.9654541015625,17.7001953125,0.8544921875,20.751953125
22403.442942375,-0.13037109375,0.158935546875,-0.9654541015625,17.7001953125,0.8544921875,20.751953125
22403.471177416,-0.13037109375,0.158935546875,-0.9654541015625,20.81298828125,0.8544921875,20.751953125
22403.471390375,-0.13037109375,0.158935546875,-0.9654541015625,20.81298828125,-0.79345703125,20.751953125
22403.491931666,-0.13037109375,0.158935546875,-0.9654541015625,20.81298828125,-0.79345703125,22.64404296875
22403.492028916,-0.079833984375,0.158935546875,-0.9654541015625,20.81298828125,-0.79345703125,22.64404296875
22403.492114416,-0.079833984375,0.14111328125,-0.9654541015625,20.81298828125,-0.79345703125,22.64404296875
22403.492196625,-0.079833984375,0.14111328125,-0.8641357421875,20.81298828125,-0.79345703125,22.64404296875
22403.516392,-0.0562744140625,0.14111328125,-0.8641357421875,20.81298828125,-0.79345703125,22.64404296875
22403.516599458,-0.0562744140625,0.144775390625,-0.8641357421875,20.81298828125,-0.79345703125,22.64404296875
22403.517171875,-0.0562744140625,0.144775390625,-0.83056640625,20.81298828125,-0.79345703125,22.64404296875
22403.546579208,-0.0562744140625,0.144775390625,-0.83056640625,43.76220703125,-0.79345703125,22.64404296875
22403.5583085,-0.0347900390625,0.144775390625,-0.83056640625,43.76220703125,-0.79345703125,22.64404296875
22403.558621541,-0.0347900390625,0.1717529296875,-0.83056640625,43.76220703125,-0.79345703125,22.64404296875
22403.558710333,-0.0347900390625,0.1717529296875,-0.778564453125,43.76220703125,-0.79345703125,22.64404296875
22403.561495416,-0.0347900390625,0.1717529296875,-0.778564453125,43.76220703125,-38.02490234375,22.64404296875
22403.591368958,-0.0347900390625,0.1717529296875,-0.778564453125,43.76220703125,-38.02490234375,19.8974609375
22403.591576291,0.0556640625,0.1717529296875,-0.778564453125,43.76220703125,-38.02490234375,19.8974609375
22403.592493458,0.0556640625,0.2493896484375,-0.778564453125,43.76220703125,-38.02490234375,19.8974609375
22403.592658541,0.0556640625,0.2493896484375,-0.7298583984375,43.76220703125,-38.02490234375,19.8974609375
22403.608413625,0.0556640625,0.2493896484375,-0.7298583984375,43.76220703125,-62.19482421875,19.8974609375
22403.608509875,0.0556640625,0.2493896484375,-0.7298583984375,43.76220703125,-62.19482421875,11.23046875
22403.651914833,0.1427001953125,0.2493896484375,-0.7298583984375,43.76220703125,-62.19482421875,11.23046875
22403.666305,0.1427001953125,0.2552490234375,-0.7298583984375,43.76220703125,-62.19482421875,11.23046875
22403.666576291,0.1427001953125,0.2552490234375,-0.9034423828125,43.76220703125,-62.19482421875,11.23046875
22403.667615916,0.1427001953125,0.2552490234375,-0.9034423828125,43.76220703125,-79.77294921875,11.23046875
22403.667835041,0.1787109375,0.2552490234375,-0.9034423828125,43.76220703125,-79.77294921875,11.23046875
22403.681310625,0.1787109375,0.2552490234375,-0.808349609375,43.76220703125,-79.77294921875,11.23046875
22403.681617291,0.1787109375,0.2552490234375,-0.808349609375,69.3359375,-79.77294921875,11.23046875
22403.710249,0.1787109375,0.2552490234375,-0.808349609375,69.3359375,-85.26611328125,11.23046875
22403.711473541,0.255615234375,0.2552490234375,-0.808349609375,69.3359375,-85.26611328125,11.23046875
22403.711627541,0.255615234375,0.3486328125,-0.808349609375,69.3359375,-85.26611328125,11.23046875
22403.712851,0.255615234375,0.3486328125,-0.8465576171875,69.3359375,-85.26611328125,11.23046875
22403.72786225,0.255615234375,0.3486328125,-0.8465576171875,69.3359375,-103.45458984375,11.23046875
22403.727996333,0.255615234375,0.3486328125,-0.8465576171875,69.3359375,-103.45458984375,-5.31005859375
22403.742545333,0.323486328125,0.3486328125,-0.8465576171875,69.3359375,-103.45458984375,-5.31005859375
22403.742753166,0.323486328125,0.3909912109375,-0.8465576171875,69.3359375,-103.45458984375,-5.31005859375
22403.742867583,0.323486328125,0.3909912109375,-0.8876953125,69.3359375,-103.45458984375,-5.31005859375
22403.757670833,0.323486328125,0.3909912109375,-0.8876953125,69.3359375,-112.548828125,-5.31005859375
22403.75775025,0.323486328125,0.3909912109375,-0.8876953125,69.3359375,-112.548828125,-11.53564453125
22403.774369708,0.382568359375,0.3909912109375,-0.8876953125,69.3359375,-112.548828125,-11.53564453125
22403.77444925,0.382568359375,0.41796875,-0.8876953125,69.3359375,-112.548828125,-11.53564453125
22403.774522041,0.382568359375,0.41796875,-0.8526611328125,69.3359375,-112.548828125,-11.53564453125
22403.790980458,0.382568359375,0.41796875,-0.8526611328125,69.3359375,-115.966796875,-11.53564453125
22403.791056208,0.382568359375,0.41796875,-0.8526611328125,69.3359375,-115.966796875,-10.92529296875
22403.801626375,0.422607421875,0.41796875,-0.8526611328125,69.3359375,-115.966796875,-10.92529296875
22403.81651825,0.422607421875,0.4482421875,-0.8526611328125,69.3359375,-115.966796875,-10.92529296875
22403.816713125,0.422607421875,0.4482421875,-0.8458251953125,69.3359375,-115.966796875,-10.92529296875
22403.817523,0.422607421875,0.4482421875,-0.8458251953125,69.3359375,-120.42236328125,-10.92529296875
22403.817699916,0.422607421875,0.4482421875,-0.8458251953125,69.3359375,-120.42236328125,-11.04736328125
22403.8480235,0.5128173828125,0.4482421875,-0.8458251953125,69.3359375,-120.42236328125,-11.04736328125
22403.848256125,0.5128173828125,0.4478759765625,-0.8458251953125,69.3359375,-120.42236328125,-11.04736328125
22403.848395541,0.5128173828125,0.4478759765625,-0.912841796875,69.3359375,-120.42236328125,-11.04736328125
22403.84888025,0.5128173828125,0.4478759765625,-0.912841796875,48.7060546875,-120.42236328125,-11.04736328125
22403.874608583,0.5411376953125,0.4478759765625,-0.912841796875,48.7060546875,-120.42236328125,-11.04736328125
22403.874704375,0.5411376953125,0.451904296875,-0.912841796875,48.7060546875,-120.42236328125,-11.04736328125
22403.874778958,0.5411376953125,0.451904296875,-0.7850341796875,48.7060546875,-120.42236328125,-11.04736328125
22403.876528583,0.5411376953125,0.451904296875,-0.7850341796875,48.7060546875,-112.3046875,-11.04736328125
22403.876677583,0.5411376953125,0.451904296875,-0.7850341796875,48.7060546875,-112.3046875,-14.34326171875
22403.8915775,0.59033203125,0.451904296875,-0.7850341796875,48.7060546875,-112.3046875,-14.34326171875
22403.891658083,0.59033203125,0.4757080078125,-0.7850341796875,48.7060546875,-112.3046875,-14.34326171875
22403.892199541,0.59033203125,0.4757080078125,-0.7369384765625,48.7060546875,-112.3046875,-14.34326171875
22403.907587708,0.59033203125,0.4757080078125,-0.7369384765625,48.7060546875,-112.6708984375,-14.34326171875
22403.907664708,0.59033203125,0.4757080078125,-0.7369384765625,48.7060546875,-112.6708984375,-12.14599609375
22403.967103625,0.668212890625,0.4757080078125,-0.7369384765625,48.7060546875,-112.6708984375,-12.14599609375
22403.967414916,0.668212890625,0.5,-0.7369384765625,48.7060546875,-112.6708984375,-12.14599609375
22403.967576125,0.668212890625,0.5,-0.7904052734375,48.7060546875,-112.6708984375,-12.14599609375
22404.04291375,0.668212890625,0.5,-0.7904052734375,25.87890625,-112.6708984375,-12.14599609375
22404.044484666,0.6778564453125,0.5,-0.7904052734375,25.87890625,-112.6708984375,-12.14599609375
22404.044794791,0.6778564453125,0.4559326171875,-0.7904052734375,25.87890625,-112.6708984375,-12.14599609375
22404.07480775,0.6778564453125,0.4559326171875,-0.7469482421875,25.87890625,-112.6708984375,-12.14599609375
22404.074889708,0.6778564453125,0.4559326171875,-0.7469482421875,25.87890625,-105.95703125,-12.14599609375
22404.074966083,0.6778564453125,0.4559326171875,-0.7469482421875,25.87890625,-105.95703125,-17.15087890625
22404.091691291,0.7476806640625,0.4559326171875,-0.7469482421875,25.87890625,-105.95703125,-17.15087890625
22404.09176,0.7476806640625,0.298828125,-0.7469482421875,25.87890625,-105.95703125,-17.15087890625
22404.091815958,0.7476806640625,0.298828125,-0.4971923828125,25.87890625,-105.95703125,-17.15087890625
22404.118315166,0.7476806640625,0.298828125,-0.4971923828125,13.7939453125,-105.95703125,-17.15087890625
22404.132078541,0.8946533203125,0.298828125,-0.4971923828125,13.7939453125,-105.95703125,-17.15087890625
22404.132202833,0.8946533203125,0.654541015625,-0.4971923828125,13.7939453125,-105.95703125,-17.15087890625
22404.13227325,0.8946533203125,0.654541015625,-0.494140625,13.7939453125,-105.95703125,-17.15087890625
22404.147811708,0.8946533203125,0.654541015625,-0.494140625,13.7939453125,-78.4912109375,-17.15087890625
22404.147916666,0.8946533203125,0.654541015625,-0.494140625,13.7939453125,-78.4912109375,-12.02392578125
22404.161423625,0.8563232421875,0.654541015625,-0.494140625,13.7939453125,-78.4912109375,-12.02392578125
22404.161511166,0.8563232421875,0.4786376953125,-0.494140625,13.7939453125,-78.4912109375,-12.02392578125
22404.162362416,0.8563232421875,0.4786376953125,-0.469482421875,13.7939453125,-78.4912109375,-12.02392578125
22404.2215615,0.8563232421875,0.4786376953125,-0.469482421875,13.7939453125,-79.1015625,-12.02392578125
22404.224721041,0.8563232421875,0.4786376953125,-0.469482421875,13.7939453125,-79.1015625,-31.494140625
22404.224851458,0.869384765625,0.4786376953125,-0.469482421875,13.7939453125,-79.1015625,-31.494140625
22404.224925791,0.869384765625,0.4786376953125,-0.423583984375,13.7939453125,-79.1015625,-31.494140625
22404.239950583,0.869384765625,0.4786376953125,-0.423583984375,13.7939453125,-72.93701171875,-31.494140625
22404.239998416,0.869384765625,0.4786376953125,-0.423583984375,13.7939453125,-72.93701171875,-32.2265625
22404.256967416,0.848388671875,0.4786376953125,-0.423583984375,13.7939453125,-72.93701171875,-32.2265625
22404.257013916,0.848388671875,0.47265625,-0.423583984375,13.7939453125,-72.93701171875,-32.2265625
22404.257059,0.848388671875,0.47265625,-0.4393310546875,13.7939453125,-72.93701171875,-32.2265625
22404.266383833,0.848388671875,0.47265625,-0.4393310546875,13.7939453125,-53.40576171875,-32.2265625
22404.266475166,0.848388671875,0.47265625,-0.4393310546875,13.7939453125,-53.40576171875,-27.52685546875
22404.311331333,0.8455810546875,0.47265625,-0.4393310546875,13.7939453125,-53.40576171875,-27.52685546875
22404.311466291,0.8455810546875,0.484619140625,-0.4393310546875,13.7939453125,-53.40576171875,-27.52685546875
22404.34103425,0.8455810546875,0.484619140625,-0.4337158203125,13.7939453125,-53.40576171875,-27.52685546875
22404.343690833,0.8455810546875,0.484619140625,-0.4337158203125,13.7939453125,-42.6025390625,-27.52685546875
22404.401542375,0.852294921875,0.484619140625,-0.4337158203125,13.7939453125,-42.6025390625,-27.52685546875
22404.431333791,0.852294921875,0.4696044921875,-0.4337158203125,13.7939453125,-42.6025390625,-27.52685546875
22404.431493916,0.852294921875,0.4696044921875,-0.4337158203125,2.01416015625,-42.6025390625,-27.52685546875
22404.441251291,0.852294921875,0.4696044921875,-0.4337158203125,2.01416015625,-20.32470703125,-27.52685546875
22404.446256291,0.825927734375,0.4696044921875,-0.4337158203125,2.01416015625,-20.32470703125,-27.52685546875
22404.446514041,0.825927734375,0.4696044921875,-0.3779296875,2.01416015625,-20.32470703125,-27.52685546875
22404.44713075,0.825927734375,0.4696044921875,-0.3779296875,2.5634765625,-20.32470703125,-27.52685546875
22404.447294541,0.825927734375,0.4696044921875,-0.3779296875,2.5634765625,-0.42724609375,-27.52685546875
22404.491864083,0.86767578125,0.4696044921875,-0.3779296875,2.5634765625,-0.42724609375,-27.52685546875
22404.492053625,0.86767578125,0.433837890625,-0.3779296875,2.5634765625,-0.42724609375,-27.52685546875
22404.492918125,0.86767578125,0.433837890625,-0.38134765625,2.5634765625,-0.42724609375,-27.52685546875
22404.493098125,0.86767578125,0.433837890625,-0.38134765625,-4.39453125,-0.42724609375,-27.52685546875
22404.53678175,0.8651123046875,0.433837890625,-0.38134765625,-4.39453125,-0.42724609375,-27.52685546875
22404.536993208,0.8651123046875,0.4317626953125,-0.38134765625,-4.39453125,-0.42724609375,-27.52685546875
22404.537102333,0.8651123046875,0.4317626953125,-0.4141845703125,-4.39453125,-0.42724609375,-27.52685546875
22404.552003416,0.8651123046875,0.4317626953125,-0.4141845703125,-4.39453125,22.705078125,-27.52685546875
22404.55221325,0.871826171875,0.4317626953125,-0.4141845703125,-4.39453125,22.705078125,-27.52685546875
22404.552322916,0.871826171875,0.4376220703125,-0.4141845703125,-4.39453125,22.705078125,-27.52685546875
22404.552967416,0.871826171875,0.4376220703125,-0.369140625,-4.39453125,22.705078125,-27.52685546875
22404.642289083,0.871826171875,0.4376220703125,-0.369140625,-4.39453125,33.8134765625,-27.52685546875
22404.686833125,0.871826171875,0.4376220703125,-0.369140625,-4.39453125,33.8134765625,10.07080078125
22404.68709075,0.8795166015625,0.4376220703125,-0.369140625,-4.39453125,33.8134765625,10.07080078125
22404.687762666,0.8795166015625,0.432861328125,-0.369140625,-4.39453125,33.8134765625,10.07080078125
22404.688007708,0.8795166015625,0.432861328125,-0.369140625,-4.39453125,44.00634765625,10.07080078125
22404.708212041,0.8798828125,0.432861328125,-0.369140625,-4.39453125,44.00634765625,10.07080078125
22404.731598458,0.8798828125,0.4857177734375,-0.369140625,-4.39453125,44.00634765625,10.07080078125
22404.731798666,0.8798828125,0.4857177734375,-0.5682373046875,-4.39453125,44.00634765625,10.07080078125
22404.732391208,0.8798828125,0.4857177734375,-0.5682373046875,-4.39453125,77.0263671875,10.07080078125
22404.735120333,0.8798828125,0.4857177734375,-0.5682373046875,-4.39453125,77.0263671875,31.6162109375
22404.746079333,0.8267822265625,0.4857177734375,-0.5682373046875,-4.39453125,77.0263671875,31.6162109375
22404.746289,0.8267822265625,0.5240478515625,-0.5682373046875,-4.39453125,77.0263671875,31.6162109375
22404.747065916,0.8267822265625,0.5240478515625,-0.635498046875,-4.39453125,77.0263671875,31.6162109375
22404.761945833,0.8267822265625,0.5240478515625,-0.635498046875,-4.39453125,77.0263671875,39.73388671875
22404.77716175,0.780029296875,0.5240478515625,-0.635498046875,-4.39453125,77.0263671875,39.73388671875
22404.777435166,0.780029296875,0.536865234375,-0.635498046875,-4.39453125,77.0263671875,39.73388671875
22404.777549,0.780029296875,0.536865234375,-0.7313232421875,-4.39453125,77.0263671875,39.73388671875
22404.806679916,0.780029296875,0.536865234375,-0.7313232421875,-4.39453125,108.2763671875,39.73388671875
22404.806884916,0.780029296875,0.536865234375,-0.7313232421875,-4.39453125,108.2763671875,39.9169921875
22404.80725425,0.77392578125,0.536865234375,-0.7313232421875,-4.39453125,108.2763671875,39.9169921875
22404.836735791,0.77392578125,0.536865234375,-0.748291015625,-4.39453125,108.2763671875,39.9169921875
22404.838469,0.77392578125,0.536865234375,-0.748291015625,-26.0009765625,108.2763671875,39.9169921875
22404.838674416,0.77392578125,0.536865234375,-0.748291015625,-26.0009765625,115.78369140625,39.9169921875
22404.858274833,0.7325439453125,0.536865234375,-0.748291015625,-26.0009765625,115.78369140625,39.9169921875
22404.85835875,0.7325439453125,0.54833984375,-0.748291015625,-26.0009765625,115.78369140625,39.9169921875
22404.858449208,0.7325439453125,0.54833984375,-0.796875,-26.0009765625,115.78369140625,39.9169921875
22404.867737791,0.7325439453125,0.54833984375,-0.796875,-26.0009765625,127.01416015625,39.9169921875
22404.867962458,0.7325439453125,0.54833984375,-0.796875,-26.0009765625,127.01416015625,46.32568359375
22404.881236375,0.72607421875,0.54833984375,-0.796875,-26.0009765625,127.01416015625,46.32568359375
22404.881397041,0.72607421875,0.5213623046875,-0.796875,-26.0009765625,127.01416015625,46.32568359375
22404.882348583,0.72607421875,0.5213623046875,-0.9708251953125,-26.0009765625,127.01416015625,46.32568359375
22404.896799208,0.72607421875,0.5213623046875,-0.9708251953125,-26.0009765625,146.1181640625,46.32568359375
22404.896972333,0.72607421875,0.5213623046875,-0.9708251953125,-26.0009765625,146.1181640625,50.35400390625
22404.911487458,0.6983642578125,0.5213623046875,-0.9708251953125,-26.0009765625,146.1181640625,50.35400390625
22404.911661375,0.6983642578125,0.5709228515625,-0.9708251953125,-26.0009765625,146.1181640625,50.35400390625
22404.91230525,0.6983642578125,0.5709228515625,-1.04541015625,-26.0009765625,146.1181640625,50.35400390625
22404.956404708,0.6983642578125,0.5709228515625,-1.04541015625,-26.0009765625,166.1376953125,50.35400390625
22404.956590041,0.6983642578125,0.5709228515625,-1.04541015625,-26.0009765625,166.1376953125,53.8330078125
22404.9747635,0.6005859375,0.5709228515625,-1.04541015625,-26.0009765625,166.1376953125,53.8330078125
22404.974842583,0.6005859375,0.5352783203125,-1.04541015625,-26.0009765625,166.1376953125,53.8330078125
22404.9749065,0.6005859375,0.5352783203125,-1.04541015625,-26.0009765625,183.59375,53.8330078125
22404.974982375,0.6005859375,0.5352783203125,-1.04541015625,-26.0009765625,183.59375,59.02099609375
22404.991314,0.4996337890625,0.5352783203125,-1.04541015625,-26.0009765625,183.59375,59.02099609375
22405.001473375,0.4996337890625,0.5511474609375,-1.04541015625,-26.0009765625,183.59375,59.02099609375
22405.007492,0.4996337890625,0.5511474609375,-1.146484375,-26.0009765625,183.59375,59.02099609375
22405.007689083,0.4996337890625,0.5511474609375,-1.146484375,-26.0009765625,203.0029296875,59.02099609375
22405.007752291,0.4996337890625,0.5511474609375,-1.146484375,-26.0009765625,203.0029296875,63.65966796875
22405.016796166,0.392578125,0.5511474609375,-1.146484375,-26.0009765625,203.0029296875,63.65966796875
22405.016945666,0.392578125,0.62646484375,-1.146484375,-26.0009765625,203.0029296875,63.65966796875
22405.017596541,0.392578125,0.62646484375,-1.07275390625,-26.0009765625,203.0029296875,63.65966796875
22405.032136625,0.392578125,0.62646484375,-1.07275390625,-26.0009765625,211.9140625,63.65966796875
22405.0323155,0.392578125,0.62646484375,-1.07275390625,-26.0009765625,211.9140625,64.75830078125
22405.061391333,0.28857421875,0.62646484375,-1.07275390625,-26.0009765625,211.9140625,64.75830078125
22405.061576208,0.28857421875,0.5643310546875,-1.07275390625,-26.0009765625,211.9140625,64.75830078125
22405.062117041,0.28857421875,0.5643310546875,-0.7745361328125,-26.0009765625,211.9140625,64.75830078125
22405.076427125,0.28857421875,0.5643310546875,-0.7745361328125,44.00634765625,211.9140625,64.75830078125
22405.091090791,0.187255859375,0.5643310546875,-0.7745361328125,44.00634765625,211.9140625,64.75830078125
22405.091466083,0.187255859375,0.45166015625,-0.7745361328125,44.00634765625,211.9140625,64.75830078125
22405.091550333,0.187255859375,0.45166015625,-0.687744140625,44.00634765625,211.9140625,64.75830078125
22405.091753666,0.187255859375,0.45166015625,-0.687744140625,44.00634765625,212.58544921875,64.75830078125
22405.09186675,0.187255859375,0.45166015625,-0.687744140625,44.00634765625,212.58544921875,76.47705078125
22405.107952166,0.0882568359375,0.45166015625,-0.687744140625,44.00634765625,212.58544921875,76.47705078125
22405.108018833,0.0882568359375,0.4075927734375,-0.687744140625,44.00634765625,212.58544921875,76.47705078125
22405.108135666,0.0882568359375,0.4075927734375,-0.7462158203125,44.00634765625,212.58544921875,76.47705078125
22405.124320041,0.0882568359375,0.4075927734375,-0.7462158203125,44.00634765625,201.72119140625,76.47705078125
22405.124401291,0.0882568359375,0.4075927734375,-0.7462158203125,44.00634765625,201.72119140625,74.951171875
22405.140853416,-0.029052734375,0.4075927734375,-0.7462158203125,44.00634765625,201.72119140625,74.951171875
22405.14093475,-0.029052734375,0.5313720703125,-0.7462158203125,44.00634765625,201.72119140625,74.951171875
22405.140996958,-0.029052734375,0.5313720703125,-0.7608642578125,44.00634765625,201.72119140625,74.951171875
22405.157520541,-0.029052734375,0.5313720703125,-0.7608642578125,44.00634765625,195.61767578125,74.951171875
22405.157586791,-0.029052734375,0.5313720703125,-0.7608642578125,44.00634765625,195.61767578125,75.62255859375
22405.183411291,-0.1563720703125,0.5313720703125,-0.7608642578125,44.00634765625,195.61767578125,75.62255859375
22405.183621708,-0.1563720703125,0.391845703125,-0.7608642578125,44.00634765625,195.61767578125,75.62255859375
22405.183731375,-0.1563720703125,0.391845703125,-1.0064697265625,44.00634765625,195.61767578125,75.62255859375
22405.183896416,-0.1563720703125,0.391845703125,-1.0064697265625,-0.1220703125,195.61767578125,75.62255859375
22405.211556375,-0.2501220703125,0.391845703125,-1.0064697265625,-0.1220703125,195.61767578125,75.62255859375
22405.211714166,-0.2501220703125,0.4718017578125,-1.0064697265625,-0.1220703125,195.61767578125,75.62255859375
22405.215104875,-0.2501220703125,0.4718017578125,-0.8150634765625,-0.1220703125,195.61767578125,75.62255859375
22405.215186125,-0.2501220703125,0.4718017578125,-0.8150634765625,-47.7294921875,195.61767578125,75.62255859375
22405.241036916,-0.404052734375,0.4718017578125,-0.8150634765625,-47.7294921875,195.61767578125,75.62255859375
22405.241108041,-0.404052734375,0.4390869140625,-0.8150634765625,-47.7294921875,195.61767578125,75.62255859375
22405.241171333,-0.404052734375,0.4390869140625,-0.670166015625,-47.7294921875,195.61767578125,75.62255859375
22405.242633958,-0.404052734375,0.4390869140625,-0.670166015625,-47.7294921875,224.12109375,75.62255859375
22405.242756125,-0.404052734375,0.4390869140625,-0.670166015625,-47.7294921875,224.12109375,93.20068359375
22405.273142166,-0.5225830078125,0.4390869140625,-0.670166015625,-47.7294921875,224.12109375,93.20068359375
22405.273355541,-0.5225830078125,0.0721435546875,-0.670166015625,-47.7294921875,224.12109375,93.20068359375
22405.273466625,-0.5225830078125,0.0721435546875,-0.045654296875,-47.7294921875,224.12109375,93.20068359375
22405.275431625,-0.5225830078125,0.0721435546875,-0.045654296875,-40.52734375,224.12109375,93.20068359375
22405.290976791,-0.5546875,0.0721435546875,-0.045654296875,-40.52734375,224.12109375,93.20068359375
22405.291043,-0.5546875,0.0439453125,-0.045654296875,-40.52734375,224.12109375,93.20068359375
22405.291104125,-0.5546875,0.0439453125,0.1688232421875,-40.52734375,224.12109375,93.20068359375
22405.301802333,-0.5546875,0.0439453125,0.1688232421875,-40.52734375,198.79150390625,93.20068359375
22405.307653166,-0.5546875,0.0439453125,0.1688232421875,-40.52734375,198.79150390625,83.1298828125
22405.316385291,-0.5948486328125,0.0439453125,0.1688232421875,-40.52734375,198.79150390625,83.1298828125
22405.316535875,-0.5948486328125,0.023193359375,0.1688232421875,-40.52734375,198.79150390625,83.1298828125
22405.317004958,-0.5948486328125,0.023193359375,0.6307373046875,-40.52734375,198.79150390625,83.1298828125
22405.3325805,-0.5948486328125,0.023193359375,0.6307373046875,-40.52734375,159.1796875,83.1298828125
22405.332765708,-0.5948486328125,0.023193359375,0.6307373046875,-40.52734375,159.1796875,69.15283203125
22405.362863333,-0.6116943359375,0.023193359375,0.6307373046875,-40.52734375,159.1796875,69.15283203125
22405.363121708,-0.6116943359375,-0.2027587890625,0.6307373046875,-40.52734375,159.1796875,69.15283203125
22405.363233375,-0.6116943359375,-0.2027587890625,0.9144287109375,-40.52734375,159.1796875,69.15283203125
22405.363306333,-0.6116943359375,-0.2027587890625,0.9144287109375,36.4990234375,159.1796875,69.15283203125
22405.390891958,-0.6519775390625,-0.2027587890625,0.9144287109375,36.4990234375,159.1796875,69.15283203125
22405.390962,-0.6519775390625,-0.2288818359375,0.9144287109375,36.4990234375,159.1796875,69.15283203125
22405.391023291,-0.6519775390625,-0.2288818359375,0.6448974609375,36.4990234375,159.1796875,69.15283203125
22405.391389375,-0.6519775390625,-0.2288818359375,0.6448974609375,36.4990234375,-17.76123046875,69.15283203125
22405.391510916,-0.6519775390625,-0.2288818359375,0.6448974609375,36.4990234375,-17.76123046875,0.9765625
22405.407755708,-0.6383056640625,-0.2288818359375,0.6448974609375,36.4990234375,-17.76123046875,0.9765625
22405.407825541,-0.6383056640625,-0.07666015625,0.6448974609375,36.4990234375,-17.76123046875,0.9765625
22405.407887375,-0.6383056640625,-0.07666015625,0.372314453125,36.4990234375,-17.76123046875,0.9765625
22405.42396,-0.6383056640625,-0.07666015625,0.372314453125,36.4990234375,-72.265625,0.9765625
22405.424026958,-0.6383056640625,-0.07666015625,0.372314453125,36.4990234375,-72.265625,-30.2734375
22405.440653541,-0.66943359375,-0.07666015625,0.372314453125,36.4990234375,-72.265625,-30.2734375
22405.440720416,-0.66943359375,0.0718994140625,0.372314453125,36.4990234375,-72.265625,-30.2734375
22405.44079675,-0.66943359375,0.0718994140625,0.139892578125,36.4990234375,-72.265625,-30.2734375
22405.457152958,-0.66943359375,0.0718994140625,0.139892578125,36.4990234375,-116.8212890625,-30.2734375
22405.457219416,-0.66943359375,0.0718994140625,0.139892578125,36.4990234375,-116.8212890625,-58.89892578125
22405.48155025,-0.6478271484375,0.0718994140625,0.139892578125,36.4990234375,-116.8212890625,-58.89892578125
22405.48172675,-0.6478271484375,0.140380859375,0.139892578125,36.4990234375,-116.8212890625,-58.89892578125
22405.4822285,-0.6478271484375,0.140380859375,-0.0694580078125,36.4990234375,-116.8212890625,-58.89892578125
22405.482393,-0.6478271484375,0.140380859375,-0.0694580078125,35.0341796875,-116.8212890625,-58.89892578125
22405.496127875,-0.626220703125,0.140380859375,-0.0694580078125,35.0341796875,-116.8212890625,-58.89892578125
22405.496254416,-0.626220703125,0.224853515625,-0.0694580078125,35.0341796875,-116.8212890625,-58.89892578125
22405.497287375,-0.626220703125,0.224853515625,-0.18017578125,35.0341796875,-116.8212890625,-58.89892578125
22405.511459333,-0.626220703125,0.224853515625,-0.18017578125,35.0341796875,-154.1748046875,-58.89892578125
22405.511601083,-0.626220703125,0.224853515625,-0.18017578125,35.0341796875,-154.1748046875,-88.5009765625
22405.525983375,-0.5684814453125,0.224853515625,-0.18017578125,35.0341796875,-154.1748046875,-88.5009765625
22405.526112083,-0.5684814453125,0.2451171875,-0.18017578125,35.0341796875,-154.1748046875,-88.5009765625
22405.526842458,-0.5684814453125,0.2451171875,-0.213623046875,35.0341796875,-154.1748046875,-88.5009765625
22405.541266958,-0.5684814453125,0.2451171875,-0.213623046875,35.0341796875,-164.12353515625,-88.5009765625
22405.541415333,-0.5684814453125,0.2451171875,-0.213623046875,35.0341796875,-164.12353515625,-98.7548828125
22405.557495333,-0.482421875,0.2451171875,-0.213623046875,35.0341796875,-164.12353515625,-98.7548828125
22405.574379541,-0.482421875,0.2989501953125,-0.213623046875,35.0341796875,-164.12353515625,-98.7548828125
22405.574458958,-0.482421875,0.2989501953125,-0.568115234375,35.0341796875,-164.12353515625,-98.7548828125
22405.574534416,-0.482421875,0.2989501953125,-0.568115234375,35.0341796875,-175.23193359375,-98.7548828125
22405.574605125,-0.482421875,0.2989501953125,-0.568115234375,35.0341796875,-175.23193359375,-108.21533203125
22405.646734708,-0.391357421875,0.2989501953125,-0.568115234375,35.0341796875,-175.23193359375,-108.21533203125
22405.65163825,-0.391357421875,0.4571533203125,-0.568115234375,35.0341796875,-175.23193359375,-108.21533203125
22405.661776125,-0.391357421875,0.4571533203125,-0.4932861328125,35.0341796875,-175.23193359375,-108.21533203125
22405.662044125,-0.391357421875,0.4571533203125,-0.4932861328125,6.4697265625,-175.23193359375,-108.21533203125
22405.675225958,-0.2960205078125,0.4571533203125,-0.4932861328125,6.4697265625,-175.23193359375,-108.21533203125
22405.675320125,-0.2960205078125,0.4595947265625,-0.4932861328125,6.4697265625,-175.23193359375,-108.21533203125
22405.676540333,-0.2960205078125,0.4595947265625,-0.4932861328125,-1.89208984375,-175.23193359375,-108.21533203125
22405.692105791,-0.2960205078125,0.4595947265625,-0.4932861328125,-1.89208984375,-182.12890625,-108.21533203125
22405.692185166,-0.2960205078125,0.4595947265625,-0.4932861328125,-1.89208984375,-182.12890625,-111.75537109375
22405.737660541,0.0096435546875,0.4595947265625,-0.4932861328125,-1.89208984375,-182.12890625,-111.75537109375
22405.737904125,0.0096435546875,0.599853515625,-0.4932861328125,-1.89208984375,-182.12890625,-111.75537109375
22405.739181416,0.0096435546875,0.599853515625,-0.821044921875,-1.89208984375,-182.12890625,-111.75537109375
22405.739407875,0.142822265625,0.599853515625,-0.821044921875,-1.89208984375,-182.12890625,-111.75537109375
22405.752400791,0.142822265625,0.599853515625,-0.972412109375,-1.89208984375,-182.12890625,-111.75537109375
22405.752687291,0.142822265625,0.599853515625,-0.972412109375,12.63427734375,-182.12890625,-111.75537109375
22405.752851541,0.142822265625,0.599853515625,-0.972412109375,12.63427734375,-175.537109375,-111.75537109375
22405.774754375,0.239990234375,0.599853515625,-0.972412109375,12.63427734375,-175.537109375,-111.75537109375
22405.774837333,0.239990234375,0.7169189453125,-0.972412109375,12.63427734375,-175.537109375,-111.75537109375
22405.774911541,0.239990234375,0.7169189453125,-0.920166015625,12.63427734375,-175.537109375,-111.75537109375
22405.781964625,0.239990234375,0.7169189453125,-0.920166015625,12.63427734375,-165.283203125,-111.75537109375
22405.782106708,0.239990234375,0.7169189453125,-0.920166015625,12.63427734375,-165.283203125,-73.486328125
22405.810774708,0.357421875,0.7169189453125,-0.920166015625,12.63427734375,-165.283203125,-73.486328125
22405.816861708,0.357421875,0.6796875,-0.920166015625,12.63427734375,-165.283203125,-73.486328125
22405.817001416,0.357421875,0.6796875,-1.013427734375,12.63427734375,-165.283203125,-73.486328125
22405.817090291,0.357421875,0.6796875,-1.013427734375,28.99169921875,-165.283203125,-73.486328125
22405.826680375,0.4755859375,0.6796875,-1.013427734375,28.99169921875,-165.283203125,-73.486328125
22405.826866416,0.4755859375,0.75048828125,-1.013427734375,28.99169921875,-165.283203125,-73.486328125
22405.84130425,0.4755859375,0.75048828125,-0.99609375,28.99169921875,-165.283203125,-73.486328125
22405.871787291,0.4755859375,0.75048828125,-0.99609375,28.99169921875,-141.845703125,-73.486328125
22405.874884166,0.4755859375,0.75048828125,-0.99609375,28.99169921875,-141.845703125,-61.6455078125
22405.875062416,0.4454345703125,0.75048828125,-0.99609375,28.99169921875,-141.845703125,-61.6455078125
22405.891271791,0.4454345703125,0.752197265625,-0.99609375,28.99169921875,-141.845703125,-61.6455078125
22405.891374041,0.4454345703125,0.752197265625,-0.99609375,28.99169921875,-130.0048828125,-61.6455078125
22405.891458083,0.4454345703125,0.752197265625,-0.99609375,28.99169921875,-130.0048828125,-52.978515625
22406.069838875,0.4886474609375,0.752197265625,-0.99609375,28.99169921875,-130.0048828125,-52.978515625
22406.077215208,0.4886474609375,0.679931640625,-0.99609375,28.99169921875,-130.0048828125,-52.978515625
22406.077373291,0.4886474609375,0.679931640625,-0.8834228515625,28.99169921875,-130.0048828125,-52.978515625
22406.07751275,0.4886474609375,0.679931640625,-0.8834228515625,28.99169921875,-113.46435546875,-52.978515625
22406.128533041,0.5650634765625,0.679931640625,-0.8834228515625,28.99169921875,-113.46435546875,-52.978515625
22406.128670916,0.5650634765625,0.642333984375,-0.8834228515625,28.99169921875,-113.46435546875,-52.978515625
22406.128742958,0.5650634765625,0.642333984375,-0.664306640625,28.99169921875,-113.46435546875,-52.978515625
22406.14152825,0.5650634765625,0.642333984375,-0.664306640625,28.99169921875,-88.8671875,-52.978515625
22406.141631041,0.5650634765625,0.642333984375,-0.664306640625,28.99169921875,-88.8671875,-24.7802734375
22406.186938875,0.7939453125,0.642333984375,-0.664306640625,28.99169921875,-88.8671875,-24.7802734375
22406.18716575,0.7939453125,0.5159912109375,-0.664306640625,28.99169921875,-88.8671875,-24.7802734375
22406.290952458,0.7939453125,0.5159912109375,-0.46484375,28.99169921875,-88.8671875,-24.7802734375
22406.292208,0.7939453125,0.5159912109375,-0.46484375,28.99169921875,-83.8623046875,-24.7802734375
22406.292649958,0.7939453125,0.5159912109375,-0.46484375,28.99169921875,-83.8623046875,-43.0908203125
22406.292857333,0.8699951171875,0.5159912109375,-0.46484375,28.99169921875,-83.8623046875,-43.0908203125
22406.32574275,0.8699951171875,0.5159912109375,-0.424072265625,28.99169921875,-83.8623046875,-43.0908203125
22406.325842541,0.8699951171875,0.5159912109375,-0.424072265625,25.7568359375,-83.8623046875,-43.0908203125
22406.325923958,0.8699951171875,0.5159912109375,-0.424072265625,25.7568359375,-79.89501953125,-43.0908203125
NEW_REP,,,,,,
22406.360400125,0.888427734375,0.5159912109375,-0.424072265625,25.7568359375,-79.89501953125,-43.0908203125
22406.360509791,0.888427734375,0.46826171875,-0.424072265625,25.7568359375,-79.89501953125,-43.0908203125
22406.360603125,0.888427734375,0.46826171875,-0.3970947265625,25.7568359375,-79.89501953125,-43.0908203125
22406.360696,0.888427734375,0.46826171875,-0.3970947265625,2.38037109375,-79.89501953125,-43.0908203125
22406.360803833,0.865234375,0.46826171875,-0.3970947265625,2.38037109375,-79.89501953125,-43.0908203125
22406.360891625,0.865234375,0.4730224609375,-0.3970947265625,2.38037109375,-79.89501953125,-43.0908203125
22406.360988875,0.865234375,0.4730224609375,-0.410888671875,2.38037109375,-79.89501953125,-43.0908203125
22406.397555833,0.865234375,0.4730224609375,-0.410888671875,2.38037109375,-32.53173828125,-43.0908203125
22406.39769825,0.865234375,0.4730224609375,-0.410888671875,2.38037109375,-32.53173828125,-28.1982421875
22406.397739916,0.82568359375,0.4730224609375,-0.410888671875,2.38037109375,-32.53173828125,-28.1982421875
22406.397778333,0.82568359375,0.4864501953125,-0.410888671875,2.38037109375,-32.53173828125,-28.1982421875
22406.425285541,0.82568359375,0.4864501953125,-0.410888671875,2.38037109375,-36.9873046875,-28.1982421875
22406.456084875,0.82568359375,0.4864501953125,-0.410888671875,2.38037109375,-36.9873046875,-21.728515625
22406.458445125,0.8004150390625,0.4864501953125,-0.410888671875,2.38037109375,-36.9873046875,-21.728515625
22406.4878805,0.8004150390625,0.56298828125,-0.410888671875,2.38037109375,-36.9873046875,-21.728515625
22406.488052375,0.8004150390625,0.56298828125,-0.410888671875,2.38037109375,-8.7890625,-21.728515625
22406.4881145,0.822021484375,0.56298828125,-0.410888671875,2.38037109375,-8.7890625,-21.728515625
22406.488153166,0.822021484375,0.56298828125,-0.569091796875,2.38037109375,-8.7890625,-21.728515625
22406.506603375,0.822021484375,0.56298828125,-0.569091796875,2.38037109375,19.6533203125,-21.728515625
22406.506646083,0.822021484375,0.56298828125,-0.569091796875,2.38037109375,19.6533203125,6.591796875
22406.577931708,0.8507080078125,0.56298828125,-0.569091796875,2.38037109375,19.6533203125,6.591796875
22406.578096166,0.8507080078125,0.6298828125,-0.569091796875,2.38037109375,19.6533203125,6.591796875
22406.59010725,0.8507080078125,0.6298828125,-0.6148681640625,2.38037109375,19.6533203125,6.591796875
22406.5901705,0.8507080078125,0.6298828125,-0.6148681640625,-28.74755859375,19.6533203125,6.591796875
22406.592463541,0.8857421875,0.6298828125,-0.6148681640625,-28.74755859375,19.6533203125,6.591796875
22406.592559375,0.8857421875,0.6424560546875,-0.6148681640625,-28.74755859375,19.6533203125,6.591796875
22406.60758625,0.8857421875,0.6424560546875,-0.6663818359375,-28.74755859375,19.6533203125,6.591796875
22406.607744083,0.8857421875,0.6424560546875,-0.6663818359375,-28.74755859375,95.39794921875,6.591796875
22406.607848708,0.8857421875,0.6424560546875,-0.6663818359375,-28.74755859375,95.39794921875,47.42431640625
22406.623659458,0.9620361328125,0.6424560546875,-0.6663818359375,-28.74755859375,95.39794921875,47.42431640625
22406.623704416,0.9620361328125,0.6099853515625,-0.6663818359375,-28.74755859375,95.39794921875,47.42431640625
22406.623745833,0.9620361328125,0.6099853515625,-0.7216796875,-28.74755859375,95.39794921875,47.42431640625
22406.695937083,0.9620361328125,0.6099853515625,-0.7216796875,-28.74755859375,144.1650390625,47.42431640625
22406.712487166,0.9620361328125,0.6099853515625,-0.7216796875,-28.74755859375,144.1650390625,63.78173828125
22406.7126595,0.977294921875,0.6099853515625,-0.7216796875,-28.74755859375,144.1650390625,63.78173828125
22406.712712916,0.977294921875,0.6478271484375,-0.7216796875,-28.74755859375,144.1650390625,63.78173828125
22406.712796166,0.977294921875,0.6478271484375,-0.7216796875,-28.74755859375,170.47119140625,63.78173828125
22406.755888416,0.8431396484375,0.6478271484375,-0.7216796875,-28.74755859375,170.47119140625,63.78173828125
22406.756037208,0.8431396484375,0.5816650390625,-0.7216796875,-28.74755859375,170.47119140625,63.78173828125
22406.772463875,0.8431396484375,0.5816650390625,-0.9447021484375,-28.74755859375,170.47119140625,63.78173828125
22406.772724708,0.8431396484375,0.5816650390625,-0.9447021484375,-26.79443359375,170.47119140625,63.78173828125
22406.772836208,0.7257080078125,0.5816650390625,-0.9447021484375,-26.79443359375,170.47119140625,63.78173828125
22406.772908541,0.7257080078125,0.5985107421875,-0.9447021484375,-26.79443359375,170.47119140625,63.78173828125
22406.787734916,0.7257080078125,0.5985107421875,-0.9447021484375,-26.79443359375,206.0546875,63.78173828125
22406.87723925,0.7257080078125,0.5985107421875,-0.9447021484375,-26.79443359375,206.0546875,84.28955078125
22406.877592083,0.5106201171875,0.5985107421875,-0.9447021484375,-26.79443359375,206.0546875,84.28955078125
22406.87777175,0.5106201171875,0.5760498046875,-0.9447021484375,-26.79443359375,206.0546875,84.28955078125
22406.878110708,0.5106201171875,0.5760498046875,-0.9263916015625,-26.79443359375,206.0546875,84.28955078125
22406.908600375,0.3935546875,0.5760498046875,-0.9263916015625,-26.79443359375,206.0546875,84.28955078125
22406.908697958,0.3935546875,0.507568359375,-0.9263916015625,-26.79443359375,206.0546875,84.28955078125
22406.908770958,0.3935546875,0.507568359375,-0.85791015625,-26.79443359375,206.0546875,84.28955078125
22406.90884075,0.3935546875,0.507568359375,-0.85791015625,-26.79443359375,209.5947265625,84.28955078125
22406.908911333,0.3935546875,0.507568359375,-0.85791015625,-26.79443359375,209.5947265625,82.21435546875
22406.925608,0.0706787109375,0.507568359375,-0.85791015625,-26.79443359375,209.5947265625,82.21435546875
22406.925688875,0.0706787109375,0.50390625,-0.85791015625,-26.79443359375,209.5947265625,82.21435546875
22406.925761125,0.0706787109375,0.50390625,-0.8466796875,-26.79443359375,209.5947265625,82.21435546875
22406.941609125,0.0706787109375,0.50390625,-0.8466796875,-26.79443359375,198.73046875,82.21435546875
22406.94168875,0.0706787109375,0.50390625,-0.8466796875,-26.79443359375,198.73046875,81.72607421875
22406.967868041,-0.0596923828125,0.50390625,-0.8466796875,-26.79443359375,198.73046875,81.72607421875
22406.968224708,-0.0596923828125,0.4488525390625,-0.8466796875,-26.79443359375,198.73046875,81.72607421875
22406.968376083,-0.0596923828125,0.4488525390625,-0.8890380859375,-26.79443359375,198.73046875,81.72607421875
22406.968478958,-0.0596923828125,0.4488525390625,-0.8890380859375,-31.494140625,198.73046875,81.72607421875
22406.981311166,-0.146240234375,0.4488525390625,-0.8890380859375,-31.494140625,198.73046875,81.72607421875
22406.981546,-0.146240234375,0.331787109375,-0.8890380859375,-31.494140625,198.73046875,81.72607421875
22406.981638791,-0.146240234375,0.331787109375,-0.8885498046875,-31.494140625,198.73046875,81.72607421875
22406.996891958,-0.146240234375,0.331787109375,-0.8885498046875,-31.494140625,204.7119140625,81.72607421875
22407.012219708,-0.146240234375,0.331787109375,-0.8885498046875,-31.494140625,204.7119140625,74.951171875
22407.012449125,-0.2325439453125,0.331787109375,-0.8885498046875,-31.494140625,204.7119140625,74.951171875
22407.012560083,-0.2325439453125,0.404296875,-0.8885498046875,-31.494140625,204.7119140625,74.951171875
22407.012707625,-0.2325439453125,0.404296875,-0.8858642578125,-31.494140625,204.7119140625,74.951171875
22407.027758833,-0.2325439453125,0.404296875,-0.8858642578125,-31.494140625,214.7216796875,74.951171875
22407.027917958,-0.2325439453125,0.404296875,-0.8858642578125,-31.494140625,214.7216796875,68.54248046875
22407.041892166,-0.326171875,0.404296875,-0.8858642578125,-31.494140625,214.7216796875,68.54248046875
22407.041969375,-0.326171875,0.3079833984375,-0.8858642578125,-31.494140625,214.7216796875,68.54248046875
22407.0420405,-0.326171875,0.3079833984375,-0.7071533203125,-31.494140625,214.7216796875,68.54248046875
22407.058385125,-0.326171875,0.3079833984375,-0.7071533203125,-31.494140625,227.6611328125,68.54248046875
22407.058460291,-0.326171875,0.3079833984375,-0.7071533203125,-31.494140625,227.6611328125,61.5234375
22407.07493375,-0.3743896484375,0.3079833984375,-0.7071533203125,-31.494140625,227.6611328125,61.5234375
22407.07501525,-0.3743896484375,0.1849365234375,-0.7071533203125,-31.494140625,227.6611328125,61.5234375
22407.075087208,-0.3743896484375,0.1849365234375,-0.4407958984375,-31.494140625,227.6611328125,61.5234375
22407.09142725,-0.3743896484375,0.1849365234375,-0.4407958984375,-31.494140625,232.421875,61.5234375
22407.091510208,-0.3743896484375,0.1849365234375,-0.4407958984375,-31.494140625,232.421875,54.8095703125
22407.11615975,-0.44873046875,0.1849365234375,-0.4407958984375,-31.494140625,232.421875,54.8095703125
22407.116313291,-0.44873046875,0.1324462890625,-0.4407958984375,-31.494140625,232.421875,54.8095703125
22407.117250541,-0.44873046875,0.1324462890625,0.127685546875,-31.494140625,232.421875,54.8095703125
22407.117396375,-0.44873046875,0.1324462890625,0.127685546875,-77.81982421875,232.421875,54.8095703125
22407.176849791,-0.528564453125,0.1324462890625,0.127685546875,-77.81982421875,232.421875,54.8095703125
22407.1914825,-0.528564453125,0.0498046875,0.127685546875,-77.81982421875,232.421875,54.8095703125
22407.191804916,-0.528564453125,0.0498046875,0.5958251953125,-77.81982421875,232.421875,54.8095703125
22407.192020625,-0.528564453125,0.0498046875,0.5958251953125,-77.81982421875,175.10986328125,54.8095703125
22407.192295083,-0.528564453125,0.0498046875,0.5958251953125,-77.81982421875,175.10986328125,28.9306640625
22407.236509375,-0.62255859375,0.0498046875,0.5958251953125,-77.81982421875,175.10986328125,28.9306640625
22407.236663875,-0.62255859375,-0.03271484375,0.5958251953125,-77.81982421875,175.10986328125,28.9306640625
22407.237127916,-0.62255859375,-0.03271484375,0.6385498046875,-77.81982421875,175.10986328125,28.9306640625
22407.237345625,-0.62255859375,-0.03271484375,0.6385498046875,34.36279296875,175.10986328125,28.9306640625
22407.258452666,-0.6390380859375,-0.03271484375,0.6385498046875,34.36279296875,175.10986328125,28.9306640625
22407.258554,-0.6390380859375,0.083740234375,0.6385498046875,34.36279296875,175.10986328125,28.9306640625
22407.258626208,-0.6390380859375,0.083740234375,0.3870849609375,34.36279296875,175.10986328125,28.9306640625
22407.267988416,-0.6390380859375,0.083740234375,0.3870849609375,34.36279296875,-91.6748046875,28.9306640625
22407.268214958,-0.6390380859375,0.083740234375,0.3870849609375,34.36279296875,-91.6748046875,-19.59228515625
22407.282076166,-0.6253662109375,0.083740234375,0.3870849609375,34.36279296875,-91.6748046875,-19.59228515625
22407.282292333,-0.6253662109375,0.16162109375,0.3870849609375,34.36279296875,-91.6748046875,-19.59228515625
22407.282385208,-0.6253662109375,0.16162109375,-0.099609375,34.36279296875,-91.6748046875,-19.59228515625
22407.297868625,-0.6253662109375,0.16162109375,-0.099609375,34.36279296875,-150.5126953125,-19.59228515625
22407.298134125,-0.6253662109375,0.16162109375,-0.099609375,34.36279296875,-150.5126953125,-38.0859375
22407.326484958,-0.6168212890625,0.16162109375,-0.099609375,34.36279296875,-150.5126953125,-38.0859375
22407.32667475,-0.6168212890625,0.095703125,-0.099609375,34.36279296875,-150.5126953125,-38.0859375
22407.327548958,-0.6168212890625,0.095703125,-0.2620849609375,34.36279296875,-150.5126953125,-38.0859375
22407.32772925,-0.6168212890625,0.095703125,-0.2620849609375,44.3115234375,-150.5126953125,-38.0859375
22407.357642875,-0.56005859375,0.095703125,-0.2620849609375,44.3115234375,-150.5126953125,-38.0859375
22407.357740583,-0.56005859375,0.17333984375,-0.2620849609375,44.3115234375,-150.5126953125,-38.0859375
22407.357914416,-0.56005859375,0.17333984375,-0.435791015625,44.3115234375,-150.5126953125,-38.0859375
22407.358022333,-0.56005859375,0.17333984375,-0.435791015625,28.62548828125,-150.5126953125,-38.0859375
22407.375154083,-0.5291748046875,0.17333984375,-0.435791015625,28.62548828125,-150.5126953125,-38.0859375
22407.375231208,-0.5291748046875,0.2310791015625,-0.435791015625,28.62548828125,-150.5126953125,-38.0859375
22407.375301,-0.5291748046875,0.2310791015625,-0.4776611328125,28.62548828125,-150.5126953125,-38.0859375
22407.39193375,-0.5291748046875,0.2310791015625,-0.4776611328125,28.62548828125,-184.6923828125,-38.0859375
22407.402700083,-0.5291748046875,0.2310791015625,-0.4776611328125,28.62548828125,-184.6923828125,-70.068359375
22407.408235916,-0.3994140625,0.2310791015625,-0.4776611328125,28.62548828125,-184.6923828125,-70.068359375
22407.408368041,-0.3994140625,0.3336181640625,-0.4776611328125,28.62548828125,-184.6923828125,-70.068359375
22407.4084405,-0.3994140625,0.3336181640625,-0.5589599609375,28.62548828125,-184.6923828125,-70.068359375
22407.417911208,-0.3994140625,0.3336181640625,-0.5589599609375,28.62548828125,-188.41552734375,-70.068359375
22407.418061041,-0.3994140625,0.3336181640625,-0.5589599609375,28.62548828125,-188.41552734375,-70.9228515625
22407.4779675,-0.3109130859375,0.3336181640625,-0.5589599609375,28.62548828125,-188.41552734375,-70.9228515625
22407.478373291,-0.3109130859375,0.4197998046875,-0.5589599609375,28.62548828125,-188.41552734375,-70.9228515625
22407.478535958,-0.3109130859375,0.4197998046875,-0.7164306640625,28.62548828125,-188.41552734375,-70.9228515625
22407.493077291,-0.3109130859375,0.4197998046875,-0.7164306640625,28.62548828125,-188.96484375,-70.9228515625
22407.493288625,-0.3109130859375,0.4197998046875,-0.7164306640625,28.62548828125,-188.96484375,-66.71142578125
22407.508696541,-0.073974609375,0.4197998046875,-0.7164306640625,28.62548828125,-188.96484375,-66.71142578125
22407.508774083,-0.073974609375,0.445068359375,-0.7164306640625,28.62548828125,-188.96484375,-66.71142578125
22407.508846041,-0.073974609375,0.445068359375,-0.6712646484375,28.62548828125,-188.96484375,-66.71142578125
22407.525774,-0.073974609375,0.445068359375,-0.6712646484375,28.62548828125,-191.95556640625,-66.71142578125
22407.525857458,-0.073974609375,0.445068359375,-0.6712646484375,28.62548828125,-191.95556640625,-65.97900390625
22407.550979916,0.15185546875,0.445068359375,-0.6712646484375,28.62548828125,-191.95556640625,-65.97900390625
22407.552035666,0.15185546875,0.566650390625,-0.6712646484375,28.62548828125,-191.95556640625,-65.97900390625
22407.552311916,0.15185546875,0.566650390625,-0.971435546875,28.62548828125,-191.95556640625,-65.97900390625
22407.552402583,0.15185546875,0.566650390625,-0.971435546875,57.18994140625,-191.95556640625,-65.97900390625
22407.580389791,0.2740478515625,0.566650390625,-0.971435546875,57.18994140625,-191.95556640625,-65.97900390625
22407.597145541,0.2740478515625,0.496337890625,-0.971435546875,57.18994140625,-191.95556640625,-65.97900390625
22407.597406375,0.2740478515625,0.496337890625,-0.92529296875,57.18994140625,-191.95556640625,-65.97900390625
22407.59754825,0.2740478515625,0.496337890625,-0.92529296875,49.6826171875,-191.95556640625,-65.97900390625
22407.626068625,0.3392333984375,0.496337890625,-0.92529296875,49.6826171875,-191.95556640625,-65.97900390625
22407.626233375,0.3392333984375,0.6197509765625,-0.92529296875,49.6826171875,-191.95556640625,-65.97900390625
22407.627055,0.3392333984375,0.6197509765625,-0.885498046875,49.6826171875,-191.95556640625,-65.97900390625
22407.627201375,0.3392333984375,0.6197509765625,-0.885498046875,49.6826171875,-196.77734375,-65.97900390625
22407.642062875,0.5848388671875,0.6197509765625,-0.885498046875,49.6826171875,-196.77734375,-65.97900390625
22407.642146375,0.5848388671875,0.5770263671875,-0.885498046875,49.6826171875,-196.77734375,-65.97900390625
22407.6423125,0.5848388671875,0.5770263671875,-0.9945068359375,49.6826171875,-196.77734375,-65.97900390625
22407.658200416,0.5848388671875,0.5770263671875,-0.9945068359375,49.6826171875,-190.91796875,-65.97900390625
22407.658294666,0.5848388671875,0.5770263671875,-0.9945068359375,49.6826171875,-190.91796875,-55.17578125
22407.686400208,0.659423828125,0.5770263671875,-0.9945068359375,49.6826171875,-190.91796875,-55.17578125
22407.701295458,0.659423828125,0.6075439453125,-0.9945068359375,49.6826171875,-190.91796875,-55.17578125
22407.701388541,0.659423828125,0.6075439453125,-0.890869140625,49.6826171875,-190.91796875,-55.17578125
22407.702890666,0.659423828125,0.6075439453125,-0.890869140625,13.18359375,-190.91796875,-55.17578125
22407.725114625,0.69921875,0.6075439453125,-0.890869140625,13.18359375,-190.91796875,-55.17578125
22407.776236458,0.69921875,0.656494140625,-0.890869140625,13.18359375,-190.91796875,-55.17578125
22407.776497333,0.69921875,0.656494140625,-0.826416015625,13.18359375,-190.91796875,-55.17578125
22407.792779916,0.8365478515625,0.656494140625,-0.826416015625,13.18359375,-190.91796875,-55.17578125
22407.809124958,0.8365478515625,0.495849609375,-0.826416015625,13.18359375,-190.91796875,-55.17578125
22407.837470708,0.8365478515625,0.495849609375,-0.826416015625,31.6162109375,-190.91796875,-55.17578125
22407.837786041,0.8365478515625,0.495849609375,-0.826416015625,31.6162109375,-170.47119140625,-55.17578125
22407.837948166,0.9459228515625,0.495849609375,-0.826416015625,31.6162109375,-170.47119140625,-55.17578125
22407.865860916,0.9459228515625,0.495849609375,-0.6529541015625,31.6162109375,-170.47119140625,-55.17578125
22407.881476208,0.9459228515625,0.495849609375,-0.6529541015625,31.6162109375,-150.0244140625,-55.17578125
22407.942107458,0.9459228515625,0.495849609375,-0.6529541015625,31.6162109375,-150.0244140625,-52.8564453125
22407.942656458,0.992919921875,0.495849609375,-0.6529541015625,31.6162109375,-150.0244140625,-52.8564453125
22407.9428135,0.992919921875,0.495849609375,-0.5223388671875,31.6162109375,-150.0244140625,-52.8564453125
22407.986197041,0.992919921875,0.495849609375,-0.5223388671875,31.6162109375,-133.97216796875,-52.8564453125
22407.992054791,0.9581298828125,0.495849609375,-0.5223388671875,31.6162109375,-133.97216796875,-52.8564453125
22407.992132958,0.9581298828125,0.44873046875,-0.5223388671875,31.6162109375,-133.97216796875,-52.8564453125
22407.992220041,0.9581298828125,0.44873046875,-0.4869384765625,31.6162109375,-133.97216796875,-52.8564453125
22408.015381333,0.9581298828125,0.44873046875,-0.4869384765625,31.6162109375,-106.4453125,-52.8564453125
22408.091587458,0.9581298828125,0.44873046875,-0.4869384765625,31.6162109375,-106.4453125,-50.35400390625
22408.091723958,0.8914794921875,0.44873046875,-0.4869384765625,31.6162109375,-106.4453125,-50.35400390625
22408.092452375,0.8914794921875,0.44873046875,-0.4674072265625,31.6162109375,-106.4453125,-50.35400390625
22408.092692583,0.8914794921875,0.44873046875,-0.4674072265625,-4.5166015625,-106.4453125,-50.35400390625
22408.1362875,0.8914794921875,0.44873046875,-0.4674072265625,-4.5166015625,-106.4453125,-31.43310546875
22408.136589333,0.8597412109375,0.44873046875,-0.4674072265625,-4.5166015625,-106.4453125,-31.43310546875
NEW_REP,,,,,,
22408.165659875,0.8597412109375,0.5438232421875,-0.4674072265625,-4.5166015625,-106.4453125,-31.43310546875
22408.195629,0.8597412109375,0.5438232421875,-0.462158203125,-4.5166015625,-106.4453125,-31.43310546875
22408.211727458,0.8597412109375,0.5438232421875,-0.462158203125,-4.5166015625,-10.80322265625,-31.43310546875
22408.212061958,0.8883056640625,0.5438232421875,-0.462158203125,-4.5166015625,-10.80322265625,-31.43310546875
22408.225305208,0.8883056640625,0.4620361328125,-0.462158203125,-4.5166015625,-10.80322265625,-31.43310546875
22408.225512625,0.8883056640625,0.4620361328125,-0.462158203125,-4.5166015625,25.93994140625,-31.43310546875
22408.22851,0.8988037109375,0.4620361328125,-0.462158203125,-4.5166015625,25.93994140625,-31.43310546875
22408.24261725,0.8988037109375,0.4993896484375,-0.462158203125,-4.5166015625,25.93994140625,-31.43310546875
22408.271775666,0.8988037109375,0.4993896484375,-0.587158203125,-4.5166015625,25.93994140625,-31.43310546875
22408.272018625,0.8988037109375,0.4993896484375,-0.587158203125,-4.5166015625,74.64599609375,-31.43310546875
22408.272108583,0.8988037109375,0.4993896484375,-0.587158203125,-4.5166015625,74.64599609375,41.68701171875
22408.272476166,0.9169921875,0.4993896484375,-0.587158203125,-4.5166015625,74.64599609375,41.68701171875
22408.292588958,0.9169921875,0.4993896484375,-0.587158203125,-13.5498046875,74.64599609375,41.68701171875
22408.292689125,0.9169921875,0.4993896484375,-0.587158203125,-13.5498046875,100.52490234375,41.68701171875
22408.30117725,0.9169921875,0.4993896484375,-0.587158203125,-13.5498046875,100.52490234375,52.67333984375
22408.392247041,1.000244140625,0.4993896484375,-0.587158203125,-13.5498046875,100.52490234375,52.67333984375
22408.39283775,1.000244140625,0.59521484375,-0.587158203125,-13.5498046875,100.52490234375,52.67333984375
22408.393140458,1.000244140625,0.59521484375,-0.699462890625,-13.5498046875,100.52490234375,52.67333984375
22408.408109666,1.000244140625,0.59521484375,-0.699462890625,-13.5498046875,134.3994140625,52.67333984375
22408.4083635,1.04443359375,0.59521484375,-0.699462890625,-13.5498046875,134.3994140625,52.67333984375
22408.425588916,1.04443359375,0.6707763671875,-0.699462890625,-13.5498046875,134.3994140625,52.67333984375
22408.425685416,1.04443359375,0.6707763671875,-0.7069091796875,-13.5498046875,134.3994140625,52.67333984375
22408.425790166,1.04443359375,0.6707763671875,-0.7069091796875,-13.5498046875,169.3115234375,52.67333984375
22408.481993958,0.93505859375,0.6707763671875,-0.7069091796875,-13.5498046875,169.3115234375,52.67333984375
22408.482586291,0.93505859375,0.677734375,-0.7069091796875,-13.5498046875,169.3115234375,52.67333984375
22408.482802708,0.93505859375,0.677734375,-0.930419921875,-13.5498046875,169.3115234375,52.67333984375
22408.482971875,0.93505859375,0.677734375,-0.930419921875,15.31982421875,169.3115234375,52.67333984375
22408.510192958,0.8516845703125,0.677734375,-0.930419921875,15.31982421875,169.3115234375,52.67333984375
22408.52622025,0.8516845703125,0.6348876953125,-0.930419921875,15.31982421875,169.3115234375,52.67333984375
22408.526370958,0.8516845703125,0.6348876953125,-0.9044189453125,15.31982421875,169.3115234375,52.67333984375
22408.54144875,0.8516845703125,0.6348876953125,-0.9044189453125,15.31982421875,225.2197265625,52.67333984375
22408.541550166,0.8516845703125,0.6348876953125,-0.9044189453125,15.31982421875,225.2197265625,87.40234375
22408.558297083,0.5252685546875,0.6348876953125,-0.9044189453125,15.31982421875,225.2197265625,87.40234375
22408.558372833,0.5252685546875,0.6707763671875,-0.9044189453125,15.31982421875,225.2197265625,87.40234375
22408.558445708,0.5252685546875,0.6707763671875,-0.8592529296875,15.31982421875,225.2197265625,87.40234375
22408.586188583,0.3505859375,0.6707763671875,-0.8592529296875,15.31982421875,225.2197265625,87.40234375
22408.586334833,0.3505859375,0.5068359375,-0.8592529296875,15.31982421875,225.2197265625,87.40234375
22408.587051958,0.3505859375,0.5068359375,-0.860595703125,15.31982421875,225.2197265625,87.40234375
22408.5871995,0.3505859375,0.5068359375,-0.860595703125,-0.8544921875,225.2197265625,87.40234375
22408.608533166,0.1912841796875,0.5068359375,-0.860595703125,-0.8544921875,225.2197265625,87.40234375
22408.608613,0.1912841796875,0.477783203125,-0.860595703125,-0.8544921875,225.2197265625,87.40234375
22408.60868475,0.1912841796875,0.477783203125,-0.8599853515625,-0.8544921875,225.2197265625,87.40234375
22408.617958291,0.1912841796875,0.477783203125,-0.8599853515625,-0.8544921875,225.830078125,87.40234375
22408.61814175,0.1912841796875,0.477783203125,-0.8599853515625,-0.8544921875,225.830078125,93.505859375
22408.691758291,0.1336669921875,0.477783203125,-0.8599853515625,-0.8544921875,225.830078125,93.505859375
22408.698428458,0.1336669921875,0.56298828125,-0.8599853515625,-0.8544921875,225.830078125,93.505859375
22408.69855625,0.1336669921875,0.56298828125,-0.824951171875,-0.8544921875,225.830078125,93.505859375
22408.706403458,0.1336669921875,0.56298828125,-0.824951171875,-0.8544921875,225.40283203125,93.505859375
22408.706629541,0.1336669921875,0.56298828125,-0.824951171875,-0.8544921875,225.40283203125,90.6982421875
22408.735519708,-0.224853515625,0.56298828125,-0.824951171875,-0.8544921875,225.40283203125,90.6982421875
22408.742095958,-0.224853515625,0.078857421875,-0.824951171875,-0.8544921875,225.40283203125,90.6982421875
22408.742175916,-0.224853515625,0.078857421875,-0.5728759765625,-0.8544921875,225.40283203125,90.6982421875
22408.742249916,-0.224853515625,0.078857421875,-0.5728759765625,-110.04638671875,225.40283203125,90.6982421875
22408.75298875,-0.2750244140625,0.078857421875,-0.5728759765625,-110.04638671875,225.40283203125,90.6982421875
22408.758376458,-0.2750244140625,0.125732421875,-0.5728759765625,-110.04638671875,225.40283203125,90.6982421875
22408.758503875,-0.2750244140625,0.125732421875,-0.31201171875,-110.04638671875,225.40283203125,90.6982421875
22408.811568458,-0.2750244140625,0.125732421875,-0.31201171875,-110.04638671875,226.01318359375,90.6982421875
22408.811932375,-0.2750244140625,0.125732421875,-0.31201171875,-110.04638671875,226.01318359375,36.19384765625
22408.812137833,-0.322998046875,0.125732421875,-0.31201171875,-110.04638671875,226.01318359375,36.19384765625
22408.841825125,-0.322998046875,0.125732421875,0.0982666015625,-110.04638671875,226.01318359375,36.19384765625
22408.8419455,-0.322998046875,0.125732421875,0.0982666015625,-142.88330078125,226.01318359375,36.19384765625
22408.842041625,-0.322998046875,0.125732421875,0.0982666015625,-142.88330078125,201.11083984375,36.19384765625
22408.842320666,-0.599853515625,0.125732421875,0.0982666015625,-142.88330078125,201.11083984375,36.19384765625
22408.842392958,-0.599853515625,0.4053955078125,0.0982666015625,-142.88330078125,201.11083984375,36.19384765625
22408.84254775,-0.599853515625,0.4053955078125,0.89501953125,-142.88330078125,201.11083984375,36.19384765625
22408.8587515,-0.599853515625,0.4053955078125,0.89501953125,-142.88330078125,70.3125,36.19384765625
22408.858829333,-0.599853515625,0.4053955078125,0.89501953125,-142.88330078125,70.3125,5.55419921875
22408.886468166,-0.658203125,0.4053955078125,0.89501953125,-142.88330078125,70.3125,5.55419921875
22408.886627375,-0.658203125,0.329345703125,0.89501953125,-142.88330078125,70.3125,5.55419921875
22408.887261666,-0.658203125,0.329345703125,0.5408935546875,-142.88330078125,70.3125,5.55419921875
22408.887404541,-0.658203125,0.329345703125,0.5408935546875,60.1806640625,70.3125,5.55419921875
22408.908476875,-0.6495361328125,0.329345703125,0.5408935546875,60.1806640625,70.3125,5.55419921875
22408.908557,-0.6495361328125,0.2650146484375,0.5408935546875,60.1806640625,70.3125,5.55419921875
22408.908628,-0.6495361328125,0.2650146484375,0.1927490234375,60.1806640625,70.3125,5.55419921875
22408.91791025,-0.6495361328125,0.2650146484375,0.1927490234375,60.1806640625,-96.923828125,5.55419921875
22408.918049125,-0.6495361328125,0.2650146484375,0.1927490234375,60.1806640625,-96.923828125,-4.8828125
22408.933905375,-0.6690673828125,0.2650146484375,0.1927490234375,60.1806640625,-96.923828125,-4.8828125
22408.93418125,-0.6690673828125,0.39501953125,0.1927490234375,60.1806640625,-96.923828125,-4.8828125
22408.934254916,-0.6690673828125,0.39501953125,-0.0438232421875,60.1806640625,-96.923828125,-4.8828125
22408.947316291,-0.6690673828125,0.39501953125,-0.0438232421875,60.1806640625,-129.57763671875,-4.8828125
22408.947482458,-0.6690673828125,0.39501953125,-0.0438232421875,60.1806640625,-129.57763671875,-11.53564453125
22408.96215025,-0.648681640625,0.39501953125,-0.0438232421875,60.1806640625,-129.57763671875,-11.53564453125
22408.962395583,-0.648681640625,0.3126220703125,-0.0438232421875,60.1806640625,-129.57763671875,-11.53564453125
22408.962491875,-0.648681640625,0.3126220703125,-0.2298583984375,60.1806640625,-129.57763671875,-11.53564453125
22408.976208083,-0.648681640625,0.3126220703125,-0.2298583984375,60.1806640625,-151.85546875,-11.53564453125
22408.976365375,-0.648681640625,0.3126220703125,-0.2298583984375,60.1806640625,-151.85546875,-14.892578125
22409.006609583,-0.5836181640625,0.3126220703125,-0.2298583984375,60.1806640625,-151.85546875,-14.892578125
22409.008103583,-0.5836181640625,0.2867431640625,-0.2298583984375,60.1806640625,-151.85546875,-14.892578125
22409.008309541,-0.5836181640625,0.2867431640625,-0.4925537109375,60.1806640625,-151.85546875,-14.892578125
22409.008402916,-0.5836181640625,0.2867431640625,-0.4925537109375,93.20068359375,-151.85546875,-14.892578125
22409.025372291,-0.5706787109375,0.2867431640625,-0.4925537109375,93.20068359375,-151.85546875,-14.892578125
22409.025466166,-0.5706787109375,0.2205810546875,-0.4925537109375,93.20068359375,-151.85546875,-14.892578125
22409.025547708,-0.5706787109375,0.2205810546875,-0.386474609375,93.20068359375,-151.85546875,-14.892578125
22409.04202025,-0.5706787109375,0.2205810546875,-0.386474609375,93.20068359375,-164.73388671875,-14.892578125
22409.042099708,-0.5706787109375,0.2205810546875,-0.386474609375,93.20068359375,-164.73388671875,-42.3583984375
22409.066456958,-0.3924560546875,0.2205810546875,-0.386474609375,93.20068359375,-164.73388671875,-42.3583984375
22409.066655625,-0.3924560546875,0.3619384765625,-0.386474609375,93.20068359375,-164.73388671875,-42.3583984375
22409.06677075,-0.3924560546875,0.3619384765625,-0.6055908203125,93.20068359375,-164.73388671875,-42.3583984375
22409.126650458,-0.3924560546875,0.3619384765625,-0.6055908203125,93.20068359375,-172.42431640625,-42.3583984375
22409.126796125,-0.3924560546875,0.3619384765625,-0.6055908203125,93.20068359375,-172.42431640625,-52.6123046875
22409.12704925,-0.2474365234375,0.3619384765625,-0.6055908203125,93.20068359375,-172.42431640625,-52.6123046875
22409.171427,-0.2474365234375,0.3619384765625,-0.609130859375,93.20068359375,-172.42431640625,-52.6123046875
22409.171669625,-0.2474365234375,0.3619384765625,-0.609130859375,53.7109375,-172.42431640625,-52.6123046875
22409.172222208,-0.2474365234375,0.3619384765625,-0.609130859375,53.7109375,-181.70166015625,-52.6123046875
22409.172474291,-0.0423583984375,0.3619384765625,-0.609130859375,53.7109375,-181.70166015625,-52.6123046875
22409.191839958,-0.0423583984375,0.3619384765625,-0.796142578125,53.7109375,-181.70166015625,-52.6123046875
22409.191918208,-0.0423583984375,0.3619384765625,-0.796142578125,49.49951171875,-181.70166015625,-52.6123046875
22409.191989166,-0.0423583984375,0.3619384765625,-0.796142578125,49.49951171875,-182.18994140625,-52.6123046875
22409.201508708,0.21875,0.3619384765625,-0.796142578125,49.49951171875,-182.18994140625,-52.6123046875
22409.201777958,0.21875,0.5062255859375,-0.796142578125,49.49951171875,-182.18994140625,-52.6123046875
22409.201875958,0.21875,0.5062255859375,-0.7742919921875,49.49951171875,-182.18994140625,-52.6123046875
22409.231294625,0.21875,0.5062255859375,-0.7742919921875,49.49951171875,-190.24658203125,-52.6123046875
22409.231473583,0.21875,0.5062255859375,-0.7742919921875,49.49951171875,-190.24658203125,-85.38818359375
22409.232171,0.3448486328125,0.5062255859375,-0.7742919921875,49.49951171875,-190.24658203125,-85.38818359375
22409.23234825,0.3448486328125,0.6815185546875,-0.7742919921875,49.49951171875,-190.24658203125,-85.38818359375
22409.258490583,0.3448486328125,0.6815185546875,-0.7742919921875,49.49951171875,-187.92724609375,-85.38818359375
22409.261173041,0.3448486328125,0.6815185546875,-0.7742919921875,49.49951171875,-187.92724609375,-84.9609375
22409.2763955,0.50634765625,0.6815185546875,-0.7742919921875,49.49951171875,-187.92724609375,-84.9609375
22409.276615333,0.50634765625,0.6309814453125,-0.7742919921875,49.49951171875,-187.92724609375,-84.9609375
22409.276729541,0.50634765625,0.6309814453125,-0.7774658203125,49.49951171875,-187.92724609375,-84.9609375
22409.277379333,0.50634765625,0.6309814453125,-0.7774658203125,49.49951171875,-192.56591796875,-84.9609375
22409.29163575,0.623779296875,0.6309814453125,-0.7774658203125,49.49951171875,-192.56591796875,-84.9609375
22409.291714666,0.623779296875,0.6531982421875,-0.7774658203125,49.49951171875,-192.56591796875,-84.9609375
22409.29270475,0.623779296875,0.6531982421875,-0.9095458984375,49.49951171875,-192.56591796875,-84.9609375
22409.308358708,0.623779296875,0.6531982421875,-0.9095458984375,49.49951171875,-187.56103515625,-84.9609375
22409.308435375,0.623779296875,0.6531982421875,-0.9095458984375,49.49951171875,-187.56103515625,-88.19580078125
22409.3249935,0.7415771484375,0.6531982421875,-0.9095458984375,49.49951171875,-187.56103515625,-88.19580078125
22409.325075291,0.7415771484375,0.8187255859375,-0.9095458984375,49.49951171875,-187.56103515625,-88.19580078125
22409.325151541,0.7415771484375,0.8187255859375,-0.8807373046875,49.49951171875,-187.56103515625,-88.19580078125
22409.351770416,0.7415771484375,0.8187255859375,-0.8807373046875,49.49951171875,-177.67333984375,-88.19580078125
22409.351975666,0.7415771484375,0.8187255859375,-0.8807373046875,49.49951171875,-177.67333984375,-79.1015625
22409.358441166,0.74609375,0.8187255859375,-0.8807373046875,49.49951171875,-177.67333984375,-79.1015625
22409.358516791,0.74609375,0.6712646484375,-0.8807373046875,49.49951171875,-177.67333984375,-79.1015625
22409.442705875,0.74609375,0.6712646484375,-0.8807373046875,49.49951171875,-168.39599609375,-79.1015625
22409.443521166,0.74609375,0.6712646484375,-0.8807373046875,49.49951171875,-168.39599609375,-77.33154296875
22409.458984625,0.80029296875,0.6712646484375,-0.8807373046875,49.49951171875,-168.39599609375,-77.33154296875
22409.459077875,0.80029296875,0.66064453125,-0.8807373046875,49.49951171875,-168.39599609375,-77.33154296875
22409.459439375,0.80029296875,0.66064453125,-0.8807373046875,49.49951171875,-152.587890625,-77.33154296875
22409.4595245,0.80029296875,0.66064453125,-0.8807373046875,49.49951171875,-152.587890625,-72.08251953125
22409.486381375,0.863525390625,0.66064453125,-0.8807373046875,49.49951171875,-152.587890625,-72.08251953125
22409.492271,0.863525390625,0.5478515625,-0.8807373046875,49.49951171875,-152.587890625,-72.08251953125
22409.4924135,0.863525390625,0.5478515625,-0.55517578125,49.49951171875,-152.587890625,-72.08251953125
22409.492502125,0.863525390625,0.5478515625,-0.55517578125,18.61572265625,-152.587890625,-72.08251953125
22409.516542291,0.9080810546875,0.5478515625,-0.55517578125,18.61572265625,-152.587890625,-72.08251953125
22409.516657125,0.9080810546875,0.5594482421875,-0.55517578125,18.61572265625,-152.587890625,-72.08251953125
22409.517153208,0.9080810546875,0.5594482421875,-0.509033203125,18.61572265625,-152.587890625,-72.08251953125
22409.517321291,0.9080810546875,0.5594482421875,-0.509033203125,18.61572265625,-116.2109375,-72.08251953125
22409.531409916,0.945556640625,0.5594482421875,-0.509033203125,18.61572265625,-116.2109375,-72.08251953125
22409.531637458,0.945556640625,0.5186767578125,-0.509033203125,18.61572265625,-116.2109375,-72.08251953125
22409.531761333,0.945556640625,0.5186767578125,-0.473388671875,18.61572265625,-116.2109375,-72.08251953125
22409.546525208,0.945556640625,0.5186767578125,-0.473388671875,18.61572265625,-109.43603515625,-72.08251953125
22409.546804875,0.945556640625,0.5186767578125,-0.473388671875,18.61572265625,-109.43603515625,-63.41552734375
22409.575688375,0.954833984375,0.5186767578125,-0.473388671875,18.61572265625,-109.43603515625,-63.41552734375
22409.591584291,0.954833984375,0.4140625,-0.473388671875,18.61572265625,-109.43603515625,-63.41552734375
22409.591875625,0.954833984375,0.4140625,-0.4398193359375,18.61572265625,-109.43603515625,-63.41552734375
22409.591992416,0.954833984375,0.4140625,-0.4398193359375,18.61572265625,-94.78759765625,-63.41552734375
22409.608639875,0.967041015625,0.4140625,-0.4398193359375,18.61572265625,-94.78759765625,-63.41552734375
22409.608722333,0.967041015625,0.35400390625,-0.4398193359375,18.61572265625,-94.78759765625,-63.41552734375
22409.608793708,0.967041015625,0.35400390625,-0.3555908203125,18.61572265625,-94.78759765625,-63.41552734375
22409.651391958,0.967041015625,0.35400390625,-0.3555908203125,18.61572265625,-94.78759765625,-47.9736328125
22409.651592708,0.9425048828125,0.35400390625,-0.3555908203125,18.61572265625,-94.78759765625,-47.9736328125
22409.652169583,0.9425048828125,0.5528564453125,-0.3555908203125,18.61572265625,-94.78759765625,-47.9736328125
22409.65236425,0.9425048828125,0.5528564453125,-0.1824951171875,18.61572265625,-94.78759765625,-47.9736328125
22409.675359333,0.9425048828125,0.5528564453125,-0.1824951171875,18.61572265625,-64.453125,-47.9736328125
22409.675442625,0.9425048828125,0.5528564453125,-0.1824951171875,18.61572265625,-64.453125,-44.921875
22409.7116105,0.9290771484375,0.5528564453125,-0.1824951171875,18.61572265625,-64.453125,-44.921875
22409.711861666,0.9290771484375,0.4140625,-0.1824951171875,18.61572265625,-64.453125,-44.921875
22409.7119505,0.9290771484375,0.4140625,-0.313720703125,18.61572265625,-64.453125,-44.921875
22409.727335833,0.9290771484375,0.4140625,-0.313720703125,18.61572265625,-76.35498046875,-44.921875
22409.741363541,0.9290771484375,0.4140625,-0.313720703125,18.61572265625,-76.35498046875,-50.537109375
22409.758359833,0.9080810546875,0.4140625,-0.313720703125,18.61572265625,-76.35498046875,-50.537109375
22409.800432125,0.9080810546875,0.5513916015625,-0.313720703125,18.61572265625,-76.35498046875,-50.537109375
NEW_REP,,,,,,
22409.847047291,0.9080810546875,0.5513916015625,-0.28271484375,18.61572265625,-76.35498046875,-50.537109375
22409.851192833,0.9080810546875,0.5513916015625,-0.28271484375,18.61572265625,-44.00634765625,-50.537109375
22409.851353833,0.9080810546875,0.5513916015625,-0.28271484375,18.61572265625,-44.00634765625,-25.45166015625
22409.851473208,0.9080810546875,0.526611328125,-0.28271484375,18.61572265625,-44.00634765625,-25.45166015625
22409.875181666,0.9080810546875,0.526611328125,-0.28271484375,1.5869140625,-44.00634765625,-25.45166015625
22409.875261125,0.9080810546875,0.526611328125,-0.28271484375,1.5869140625,-18.73779296875,-25.45166015625
22409.875331541,0.9080810546875,0.526611328125,-0.28271484375,1.5869140625,-18.73779296875,-5.859375
22409.877012541,0.884765625,0.526611328125,-0.28271484375,1.5869140625,-18.73779296875,-5.859375
22409.877173333,0.884765625,0.484375,-0.28271484375,1.5869140625,-18.73779296875,-5.859375
22409.892235125,0.884765625,0.484375,-0.46435546875,1.5869140625,-18.73779296875,-5.859375
22409.89246275,0.884765625,0.484375,-0.46435546875,1.5869140625,23.98681640625,-5.859375
22409.892557625,0.884765625,0.484375,-0.46435546875,1.5869140625,23.98681640625,24.47509765625
22409.908459458,0.8863525390625,0.484375,-0.46435546875,1.5869140625,23.98681640625,24.47509765625
22409.908541791,0.8863525390625,0.4810791015625,-0.46435546875,1.5869140625,23.98681640625,24.47509765625
22409.908614125,0.8863525390625,0.4810791015625,-0.4932861328125,1.5869140625,23.98681640625,24.47509765625
22409.924869708,0.8863525390625,0.4810791015625,-0.4932861328125,1.5869140625,47.91259765625,24.47509765625
22409.924947875,0.8863525390625,0.4810791015625,-0.4932861328125,1.5869140625,47.91259765625,33.63037109375
22409.941563083,0.8963623046875,0.4810791015625,-0.4932861328125,1.5869140625,47.91259765625,33.63037109375
22409.941637583,0.8963623046875,0.4822998046875,-0.4932861328125,1.5869140625,47.91259765625,33.63037109375
22409.941707083,0.8963623046875,0.4822998046875,-0.5760498046875,1.5869140625,47.91259765625,33.63037109375
22409.95812725,0.8963623046875,0.4822998046875,-0.5760498046875,1.5869140625,66.83349609375,33.63037109375
22409.95822225,0.8963623046875,0.4822998046875,-0.5760498046875,1.5869140625,66.83349609375,41.32080078125
22410.02769575,0.9652099609375,0.4822998046875,-0.5760498046875,1.5869140625,66.83349609375,41.32080078125
22410.02818275,0.9652099609375,0.5430908203125,-0.5760498046875,1.5869140625,66.83349609375,41.32080078125
22410.028377083,0.9652099609375,0.5430908203125,-0.622802734375,1.5869140625,66.83349609375,41.32080078125
22410.028504958,0.9652099609375,0.5430908203125,-0.622802734375,-27.40478515625,66.83349609375,41.32080078125
22410.056339833,1.030517578125,0.5430908203125,-0.622802734375,-27.40478515625,66.83349609375,41.32080078125
22410.056534458,1.030517578125,0.6090087890625,-0.622802734375,-27.40478515625,66.83349609375,41.32080078125
22410.086788833,1.030517578125,0.6090087890625,-0.702392578125,-27.40478515625,66.83349609375,41.32080078125
22410.087941666,1.030517578125,0.6090087890625,-0.702392578125,-27.40478515625,137.39013671875,41.32080078125
22410.088244416,1.059326171875,0.6090087890625,-0.702392578125,-27.40478515625,137.39013671875,41.32080078125
22410.088366041,1.059326171875,0.726806640625,-0.702392578125,-27.40478515625,137.39013671875,41.32080078125
22410.116443208,1.059326171875,0.726806640625,-0.702392578125,-27.40478515625,207.21435546875,41.32080078125
22410.116648041,1.059326171875,0.726806640625,-0.702392578125,-27.40478515625,207.21435546875,86.12060546875
22410.11713375,1.0712890625,0.726806640625,-0.702392578125,-27.40478515625,207.21435546875,86.12060546875
22410.131433333,1.0712890625,0.7525634765625,-0.702392578125,-27.40478515625,207.21435546875,86.12060546875
22410.131644458,1.0712890625,0.7525634765625,-0.702392578125,-27.40478515625,233.2763671875,86.12060546875
22410.131765791,1.0712890625,0.7525634765625,-0.702392578125,-27.40478515625,233.2763671875,91.61376953125
22410.161479791,0.964599609375,0.7525634765625,-0.702392578125,-27.40478515625,233.2763671875,91.61376953125
22410.161690541,0.964599609375,0.7291259765625,-0.702392578125,-27.40478515625,233.2763671875,91.61376953125
22410.162398291,0.964599609375,0.7291259765625,-0.9261474609375,-27.40478515625,233.2763671875,91.61376953125
22410.162594875,0.964599609375,0.7291259765625,-0.9261474609375,1.77001953125,233.2763671875,91.61376953125
22410.176236291,0.8109130859375,0.7291259765625,-0.9261474609375,1.77001953125,233.2763671875,91.61376953125
22410.176428583,0.8109130859375,0.6536865234375,-0.9261474609375,1.77001953125,233.2763671875,91.61376953125
22410.176533041,0.8109130859375,0.6536865234375,-0.967529296875,1.77001953125,233.2763671875,91.61376953125
22410.192080458,0.8109130859375,0.6536865234375,-0.967529296875,1.77001953125,244.5068359375,91.61376953125
22410.192163625,0.8109130859375,0.6536865234375,-0.967529296875,1.77001953125,244.5068359375,91.00341796875
22410.220552833,0.611328125,0.6536865234375,-0.967529296875,1.77001953125,244.5068359375,91.00341796875
22410.222469583,0.611328125,0.5853271484375,-0.967529296875,1.77001953125,244.5068359375,91.00341796875
22410.222663666,0.611328125,0.5853271484375,-0.864501953125,1.77001953125,244.5068359375,91.00341796875
22410.236671791,0.611328125,0.5853271484375,-0.864501953125,-1.3427734375,244.5068359375,91.00341796875
22410.236915541,0.5010986328125,0.5853271484375,-0.864501953125,-1.3427734375,244.5068359375,91.00341796875
22410.237053916,0.5010986328125,0.65966796875,-0.864501953125,-1.3427734375,244.5068359375,91.00341796875
22410.23745025,0.5010986328125,0.65966796875,-0.829345703125,-1.3427734375,244.5068359375,91.00341796875
22410.267249375,0.5010986328125,0.65966796875,-0.829345703125,-1.3427734375,235.90087890625,91.00341796875
22410.268627416,0.5010986328125,0.65966796875,-0.829345703125,-1.3427734375,235.90087890625,97.22900390625
22410.268761041,0.360107421875,0.65966796875,-0.829345703125,-1.3427734375,235.90087890625,97.22900390625
22410.2688485,0.360107421875,0.589111328125,-0.829345703125,-1.3427734375,235.90087890625,97.22900390625
22410.326760958,0.360107421875,0.589111328125,-0.829345703125,-1.3427734375,231.14013671875,97.22900390625
22410.327662125,0.360107421875,0.589111328125,-0.829345703125,-1.3427734375,231.14013671875,99.9755859375
22410.327910625,0.2525634765625,0.589111328125,-0.829345703125,-1.3427734375,231.14013671875,99.9755859375
22410.342480375,0.2525634765625,0.589111328125,-0.8035888671875,-1.3427734375,231.14013671875,99.9755859375
22410.342589583,0.2525634765625,0.589111328125,-0.8035888671875,25.69580078125,231.14013671875,99.9755859375
22410.342676708,0.2525634765625,0.589111328125,-0.8035888671875,25.69580078125,222.7783203125,99.9755859375
22410.387106958,0.0472412109375,0.589111328125,-0.8035888671875,25.69580078125,222.7783203125,99.9755859375
22410.387808375,0.0472412109375,0.6632080078125,-0.8035888671875,25.69580078125,222.7783203125,99.9755859375
22410.388027916,0.0472412109375,0.6632080078125,-0.8587646484375,25.69580078125,222.7783203125,99.9755859375
22410.388312208,0.0472412109375,0.6632080078125,-0.8587646484375,-25.57373046875,222.7783203125,99.9755859375
22410.408974875,-0.1441650390625,0.6632080078125,-0.8587646484375,-25.57373046875,222.7783203125,99.9755859375
22410.409058083,-0.1441650390625,0.6160888671875,-0.8587646484375,-25.57373046875,222.7783203125,99.9755859375
22410.409132083,-0.1441650390625,0.6160888671875,-0.787353515625,-25.57373046875,222.7783203125,99.9755859375
22410.416490666,-0.1441650390625,0.6160888671875,-0.787353515625,-25.57373046875,240.17333984375,99.9755859375
22410.431735166,-0.1441650390625,0.6160888671875,-0.787353515625,-25.57373046875,240.17333984375,98.20556640625
22410.431974166,-0.2822265625,0.6160888671875,-0.787353515625,-25.57373046875,240.17333984375,98.20556640625
22410.432061333,-0.2822265625,0.3050537109375,-0.787353515625,-25.57373046875,240.17333984375,98.20556640625
22410.432372875,-0.2822265625,0.3050537109375,-0.4332275390625,-25.57373046875,240.17333984375,98.20556640625
22410.448056625,-0.2822265625,0.3050537109375,-0.4332275390625,-25.57373046875,239.1357421875,98.20556640625
22410.448249708,-0.2822265625,0.3050537109375,-0.4332275390625,-25.57373046875,239.1357421875,108.154296875
22410.477490958,-0.36865234375,0.3050537109375,-0.4332275390625,-25.57373046875,239.1357421875,108.154296875
22410.477753541,-0.36865234375,0.1734619140625,-0.4332275390625,-25.57373046875,239.1357421875,108.154296875
22410.477881958,-0.36865234375,0.1734619140625,0.0938720703125,-25.57373046875,239.1357421875,108.154296875
22410.478051208,-0.36865234375,0.1734619140625,0.0938720703125,-25.57373046875,218.20068359375,108.154296875
22410.492410625,-0.432861328125,0.1734619140625,0.0938720703125,-25.57373046875,218.20068359375,108.154296875
22410.492654166,-0.432861328125,-0.009765625,0.0938720703125,-25.57373046875,218.20068359375,108.154296875
22410.492764791,-0.432861328125,-0.009765625,0.476318359375,-25.57373046875,218.20068359375,108.154296875
22410.508069875,-0.432861328125,-0.009765625,0.476318359375,-25.57373046875,181.82373046875,108.154296875
22410.508351333,-0.432861328125,-0.009765625,0.476318359375,-25.57373046875,181.82373046875,93.6279296875
22410.536435375,-0.49609375,-0.009765625,0.476318359375,-25.57373046875,181.82373046875,93.6279296875
22410.5425035,-0.49609375,-0.1575927734375,0.476318359375,-25.57373046875,181.82373046875,93.6279296875
22410.542585625,-0.49609375,-0.1575927734375,0.9237060546875,-25.57373046875,181.82373046875,93.6279296875
22410.542658208,-0.49609375,-0.1575927734375,0.9237060546875,-27.9541015625,181.82373046875,93.6279296875
22410.553080541,-0.5523681640625,-0.1575927734375,0.9237060546875,-27.9541015625,181.82373046875,93.6279296875
22410.55850475,-0.5523681640625,-0.0540771484375,0.9237060546875,-27.9541015625,181.82373046875,93.6279296875
22410.558645625,-0.5523681640625,-0.0540771484375,0.89697265625,-27.9541015625,181.82373046875,93.6279296875
22410.568076,-0.5523681640625,-0.0540771484375,0.89697265625,-27.9541015625,25.2685546875,93.6279296875
22410.568252541,-0.5523681640625,-0.0540771484375,0.89697265625,-27.9541015625,25.2685546875,15.80810546875
22410.629650333,-0.5791015625,-0.0540771484375,0.89697265625,-27.9541015625,25.2685546875,15.80810546875
22410.630005083,-0.5791015625,0.0614013671875,0.89697265625,-27.9541015625,25.2685546875,15.80810546875
22410.630128041,-0.5791015625,0.0614013671875,0.5736083984375,-27.9541015625,25.2685546875,15.80810546875
22410.642076041,-0.5791015625,0.0614013671875,0.5736083984375,-27.9541015625,-65.5517578125,15.80810546875
22410.642254791,-0.5791015625,0.0614013671875,0.5736083984375,-27.9541015625,-65.5517578125,-11.71875
22410.7022435,-0.5830078125,0.0614013671875,0.5736083984375,-27.9541015625,-65.5517578125,-11.71875
22410.7025565,-0.5830078125,0.1881103515625,0.5736083984375,-27.9541015625,-65.5517578125,-11.71875
22410.702721791,-0.5830078125,0.1881103515625,-0.0047607421875,-27.9541015625,-65.5517578125,-11.71875
22410.703034916,-0.5830078125,0.1881103515625,-0.0047607421875,72.93701171875,-65.5517578125,-11.71875
22410.72508375,-0.498779296875,0.1881103515625,-0.0047607421875,72.93701171875,-65.5517578125,-11.71875
22410.725154708,-0.498779296875,0.2354736328125,-0.0047607421875,72.93701171875,-65.5517578125,-11.71875
22410.725216666,-0.498779296875,0.2354736328125,-0.253662109375,72.93701171875,-65.5517578125,-11.71875
22410.7314815,-0.498779296875,0.2354736328125,-0.253662109375,72.93701171875,-167.96875,-11.71875
22410.731633166,-0.498779296875,0.2354736328125,-0.253662109375,72.93701171875,-167.96875,-98.9990234375
