Timestamp,Accel_X,Accel_Y,Accel_Z,Gyro_X,Gyro_Y,Gyro_Z
252297.201105083,0.855712890625,0.0,0.0,0.0,0.0,0.0
252297.229958625,0.8416748046875,0.0,0.0,0.0,0.0,0.0
252297.244416041,0.83642578125,0.0,0.0,0.0,0.0,0.0
252297.248479833,0.83642578125,0.39892578125,0.0,0.0,0.0,0.0
252297.263463166,0.8609619140625,0.39892578125,0.0,0.0,0.0,0.0
252297.288949583,0.8609619140625,0.3624267578125,0.0,0.0,0.0,0.0
252297.293790291,0.9005126953125,0.3624267578125,0.0,0.0,0.0,0.0
252297.293881291,0.9005126953125,0.3349609375,0.0,0.0,0.0,0.0
252297.324630916,0.912353515625,0.3349609375,0.0,0.0,0.0,0.0
252297.324708583,0.912353515625,0.332763671875,0.0,0.0,0.0,0.0
252297.324779916,0.912353515625,0.332763671875,-0.30810546875,0.0,0.0,0.0
252297.334300875,0.9149169921875,0.332763671875,-0.30810546875,0.0,0.0,0.0
252297.334468291,0.9149169921875,0.3333740234375,-0.30810546875,0.0,0.0,0.0
252297.364251666,0.9124755859375,0.3333740234375,-0.30810546875,0.0,0.0,0.0
252297.367946875,0.9124755859375,0.3360595703125,-0.30810546875,0.0,0.0,0.0
252297.368082,0.9124755859375,0.3360595703125,-0.2894287109375,0.0,0.0,0.0
252297.368161416,0.9124755859375,0.3360595703125,-0.2894287109375,-1.5869140625,0.0,0.0
252297.391508875,0.8868408203125,0.3360595703125,-0.2894287109375,-1.5869140625,0.0,0.0
252297.391633666,0.8868408203125,0.301025390625,-0.2894287109375,-1.5869140625,0.0,0.0
252297.394474333,0.8868408203125,0.301025390625,-0.2894287109375,-2.13623046875,0.0,0.0
252297.394671875,0.8868408203125,0.301025390625,-0.2894287109375,-2.13623046875,-5.126953125,0.0
252297.4242595,0.854248046875,0.301025390625,-0.2894287109375,-2.13623046875,-5.126953125,0.0
252297.425231583,0.854248046875,0.3201904296875,-0.2894287109375,-2.13623046875,-5.126953125,0.0
252297.425406666,0.854248046875,0.3201904296875,-0.2845458984375,-2.13623046875,-5.126953125,0.0
252297.439006083,0.87060546875,0.3201904296875,-0.2845458984375,-2.13623046875,-5.126953125,0.0
252297.439194458,0.87060546875,0.3739013671875,-0.2845458984375,-2.13623046875,-5.126953125,0.0
252297.440312041,0.87060546875,0.3739013671875,-0.28125,-2.13623046875,-5.126953125,0.0
252297.454050916,0.87060546875,0.3739013671875,-0.28125,-2.13623046875,-5.126953125,0.0
252297.454256833,0.87060546875,0.3739013671875,-0.28125,-2.13623046875,-5.126953125,3.0517578125
252297.469229166,0.9044189453125,0.3739013671875,-0.28125,-2.13623046875,-5.126953125,3.0517578125
252297.469471833,0.9044189453125,0.3333740234375,-0.28125,-2.13623046875,-5.126953125,3.0517578125
252297.469601041,0.9044189453125,0.3333740234375,-0.255859375,-2.13623046875,-5.126953125,3.0517578125
252297.484326125,0.9044189453125,0.3333740234375,-0.255859375,-2.13623046875,-4.150390625,3.0517578125
252297.484512,0.9044189453125,0.3333740234375,-0.255859375,-2.13623046875,-4.150390625,0.732421875
252297.515148833,0.9066162109375,0.3333740234375,-0.255859375,-2.13623046875,-4.150390625,0.732421875
252297.515272625,0.9066162109375,0.3463134765625,-0.255859375,-2.13623046875,-4.150390625,0.732421875
252297.515608208,0.9066162109375,0.3463134765625,-0.267578125,-2.13623046875,-4.150390625,0.732421875
252297.515868208,0.9066162109375,0.3463134765625,-0.267578125,5.7373046875,-4.150390625,0.732421875
252297.546187,0.890869140625,0.3463134765625,-0.267578125,5.7373046875,-4.150390625,0.732421875
252297.546446708,0.890869140625,0.3695068359375,-0.267578125,5.7373046875,-4.150390625,0.732421875
252297.546582708,0.890869140625,0.3695068359375,-0.2518310546875,5.7373046875,-4.150390625,0.732421875
252297.559145791,0.890869140625,0.3695068359375,-0.2518310546875,9.033203125,-4.150390625,0.732421875
252297.559331416,0.8701171875,0.3695068359375,-0.2518310546875,9.033203125,-4.150390625,0.732421875
252297.559403916,0.8701171875,0.368408203125,-0.2518310546875,9.033203125,-4.150390625,0.732421875
252297.559938666,0.8701171875,0.368408203125,-0.251220703125,9.033203125,-4.150390625,0.732421875
252297.574578958,0.8701171875,0.368408203125,-0.251220703125,9.033203125,-0.732421875,0.732421875
252297.574725916,0.8701171875,0.368408203125,-0.251220703125,9.033203125,-0.732421875,0.48828125
252297.603856666,0.869384765625,0.368408203125,-0.251220703125,9.033203125,-0.732421875,0.48828125
252297.603954875,0.869384765625,0.32666015625,-0.251220703125,9.033203125,-0.732421875,0.48828125
252297.613340416,0.869384765625,0.32666015625,-0.2398681640625,9.033203125,-0.732421875,0.48828125
252297.613384333,0.869384765625,0.32666015625,-0.2398681640625,15.44189453125,-0.732421875,0.48828125
252297.618722333,0.868408203125,0.32666015625,-0.2398681640625,15.44189453125,-0.732421875,0.48828125
252297.6188135,0.868408203125,0.3388671875,-0.2398681640625,15.44189453125,-0.732421875,0.48828125
252297.618851416,0.868408203125,0.3388671875,-0.2532958984375,15.44189453125,-0.732421875,0.48828125
252297.63972875,0.868408203125,0.3388671875,-0.2532958984375,15.44189453125,0.732421875,0.48828125
252297.63976825,0.868408203125,0.3388671875,-0.2532958984375,15.44189453125,0.732421875,5.7373046875
252297.649029291,0.8880615234375,0.3388671875,-0.2532958984375,15.44189453125,0.732421875,5.7373046875
252297.64912475,0.8880615234375,0.3433837890625,-0.2532958984375,15.44189453125,0.732421875,5.7373046875
252297.649183625,0.8880615234375,0.3433837890625,-0.2425537109375,15.44189453125,0.732421875,5.7373046875
252297.663912958,0.8880615234375,0.3433837890625,-0.2425537109375,15.44189453125,0.6103515625,5.7373046875
252297.663994333,0.8880615234375,0.3433837890625,-0.2425537109375,15.44189453125,0.6103515625,7.01904296875
252297.723806208,0.8905029296875,0.3433837890625,-0.2425537109375,15.44189453125,0.6103515625,7.01904296875
252297.723933541,0.8905029296875,0.3446044921875,-0.2425537109375,15.44189453125,0.6103515625,7.01904296875
252297.723980666,0.8905029296875,0.3446044921875,-0.2547607421875,15.44189453125,0.6103515625,7.01904296875
252297.739759791,0.8905029296875,0.3446044921875,-0.2547607421875,15.44189453125,-0.244140625,7.01904296875
252297.739827,0.8905029296875,0.3446044921875,-0.2547607421875,15.44189453125,-0.244140625,6.53076171875
252297.756612791,0.8804931640625,0.3446044921875,-0.2547607421875,15.44189453125,-0.244140625,6.53076171875
252297.75666075,0.8804931640625,0.310791015625,-0.2547607421875,15.44189453125,-0.244140625,6.53076171875
252297.75670175,0.8804931640625,0.310791015625,-0.2821044921875,15.44189453125,-0.244140625,6.53076171875
252297.772923625,0.8804931640625,0.310791015625,-0.2821044921875,15.44189453125,1.5869140625,6.53076171875
252297.772966708,0.8804931640625,0.310791015625,-0.2821044921875,15.44189453125,1.5869140625,5.126953125
252297.798727833,0.890869140625,0.310791015625,-0.2821044921875,15.44189453125,1.5869140625,5.126953125
252297.798839166,0.890869140625,0.3092041015625,-0.2821044921875,15.44189453125,1.5869140625,5.126953125
252297.806390291,0.890869140625,0.3092041015625,-0.267333984375,15.44189453125,1.5869140625,5.126953125
252297.806436166,0.890869140625,0.3092041015625,-0.267333984375,6.2255859375,1.5869140625,5.126953125
252297.813885708,0.893798828125,0.3092041015625,-0.267333984375,6.2255859375,1.5869140625,5.126953125
252297.814003458,0.893798828125,0.303955078125,-0.267333984375,6.2255859375,1.5869140625,5.126953125
252297.814068083,0.893798828125,0.303955078125,-0.2579345703125,6.2255859375,1.5869140625,5.126953125
252297.857857708,0.893798828125,0.303955078125,-0.2579345703125,6.2255859375,5.79833984375,5.126953125
252297.859451208,0.893798828125,0.303955078125,-0.2579345703125,6.2255859375,5.79833984375,3.84521484375
252297.859571291,0.872802734375,0.303955078125,-0.2579345703125,6.2255859375,5.79833984375,3.84521484375
252297.874018333,0.872802734375,0.303955078125,-0.288330078125,6.2255859375,5.79833984375,3.84521484375
252297.874179791,0.872802734375,0.303955078125,-0.288330078125,1.89208984375,5.79833984375,3.84521484375
252297.874234083,0.872802734375,0.303955078125,-0.288330078125,1.89208984375,6.7138671875,3.84521484375
252297.904218125,0.8814697265625,0.303955078125,-0.288330078125,1.89208984375,6.7138671875,3.84521484375
252297.904363125,0.8814697265625,0.31103515625,-0.288330078125,1.89208984375,6.7138671875,3.84521484375
252297.905174541,0.8814697265625,0.31103515625,-0.26708984375,1.89208984375,6.7138671875,3.84521484375
252297.905287541,0.8814697265625,0.31103515625,-0.26708984375,9.82666015625,6.7138671875,3.84521484375
252297.923531083,0.8858642578125,0.31103515625,-0.26708984375,9.82666015625,6.7138671875,3.84521484375
252297.923582291,0.8858642578125,0.2840576171875,-0.26708984375,9.82666015625,6.7138671875,3.84521484375
252297.9236235,0.8858642578125,0.2840576171875,-0.25390625,9.82666015625,6.7138671875,3.84521484375
252297.939921416,0.8858642578125,0.2840576171875,-0.25390625,9.82666015625,5.79833984375,3.84521484375
252297.939961,0.8858642578125,0.2840576171875,-0.25390625,9.82666015625,5.79833984375,2.38037109375
252297.950425333,0.885498046875,0.2840576171875,-0.25390625,9.82666015625,5.79833984375,2.38037109375
252297.950465,0.885498046875,0.2979736328125,-0.25390625,9.82666015625,5.79833984375,2.38037109375
252297.956323166,0.885498046875,0.2979736328125,-0.25439453125,9.82666015625,5.79833984375,2.38037109375
252297.964099,0.885498046875,0.2979736328125,-0.25439453125,9.82666015625,4.33349609375,2.38037109375
252297.964184083,0.885498046875,0.2979736328125,-0.25439453125,9.82666015625,4.33349609375,0.9765625
252297.978815708,0.8880615234375,0.2979736328125,-0.25439453125,9.82666015625,4.33349609375,0.9765625
252297.978938083,0.8880615234375,0.3218994140625,-0.25439453125,9.82666015625,4.33349609375,0.9765625
252297.978979541,0.8880615234375,0.3218994140625,-0.241455078125,9.82666015625,4.33349609375,0.9765625
252298.038663833,0.8880615234375,0.3218994140625,-0.241455078125,9.82666015625,3.84521484375,0.9765625
252298.038697916,0.8880615234375,0.3218994140625,-0.241455078125,9.82666015625,3.84521484375,-0.18310546875
252298.039778666,0.9034423828125,0.3218994140625,-0.241455078125,9.82666015625,3.84521484375,-0.18310546875
252298.039832208,0.9034423828125,0.3218994140625,-0.24267578125,9.82666015625,3.84521484375,-0.18310546875
252298.053812541,0.9034423828125,0.3218994140625,-0.24267578125,9.82666015625,2.62451171875,-0.18310546875
252298.053881583,0.9034423828125,0.3218994140625,-0.24267578125,9.82666015625,2.62451171875,-0.1220703125
252298.083680791,0.9002685546875,0.3218994140625,-0.24267578125,9.82666015625,2.62451171875,-0.1220703125
252298.083763,0.9002685546875,0.3038330078125,-0.24267578125,9.82666015625,2.62451171875,-0.1220703125
252298.084872916,0.9002685546875,0.3038330078125,-0.235107421875,9.82666015625,2.62451171875,-0.1220703125
252298.084942666,0.9002685546875,0.3038330078125,-0.235107421875,1.15966796875,2.62451171875,-0.1220703125
252298.114324041,0.897216796875,0.3038330078125,-0.235107421875,1.15966796875,2.62451171875,-0.1220703125
252298.114675875,0.897216796875,0.28125,-0.235107421875,1.15966796875,2.62451171875,-0.1220703125
252298.114994125,0.897216796875,0.28125,-0.2376708984375,1.15966796875,2.62451171875,-0.1220703125
252298.11519,0.897216796875,0.28125,-0.2376708984375,1.15966796875,-1.8310546875,-0.1220703125
252298.129373458,0.9071044921875,0.28125,-0.2376708984375,1.15966796875,-1.8310546875,-0.1220703125
252298.129707708,0.9071044921875,0.3035888671875,-0.2376708984375,1.15966796875,-1.8310546875,-0.1220703125
252298.129828291,0.9071044921875,0.3035888671875,-0.25830078125,1.15966796875,-1.8310546875,-0.1220703125
252298.143918666,0.9071044921875,0.3035888671875,-0.25830078125,1.15966796875,-4.21142578125,-0.1220703125
252298.144030833,0.9071044921875,0.3035888671875,-0.25830078125,1.15966796875,-4.21142578125,-2.74658203125
252298.174406375,0.8984375,0.3035888671875,-0.25830078125,1.15966796875,-4.21142578125,-2.74658203125
252298.174702791,0.8984375,0.3231201171875,-0.25830078125,1.15966796875,-4.21142578125,-2.74658203125
252298.17498075,0.8984375,0.3231201171875,-0.259033203125,1.15966796875,-4.21142578125,-2.74658203125
252298.175131333,0.8984375,0.3231201171875,-0.259033203125,6.7138671875,-4.21142578125,-2.74658203125
252298.191239333,0.89990234375,0.3231201171875,-0.259033203125,6.7138671875,-4.21142578125,-2.74658203125
252298.208224916,0.89990234375,0.3065185546875,-0.259033203125,6.7138671875,-4.21142578125,-2.74658203125
252298.225123708,0.89990234375,0.3065185546875,-0.268798828125,6.7138671875,-4.21142578125,-2.74658203125
252298.225222125,0.89990234375,0.3065185546875,-0.268798828125,6.7138671875,-6.2255859375,-2.74658203125
252298.225329,0.89990234375,0.3065185546875,-0.268798828125,6.7138671875,-6.2255859375,-4.69970703125
252298.225412125,0.896240234375,0.3065185546875,-0.268798828125,6.7138671875,-6.2255859375,-4.69970703125
252298.234056625,0.896240234375,0.3065185546875,-0.268798828125,4.39453125,-6.2255859375,-4.69970703125
252298.234277875,0.896240234375,0.3065185546875,-0.268798828125,4.39453125,-5.126953125,-4.69970703125
252298.23440025,0.896240234375,0.3065185546875,-0.268798828125,4.39453125,-5.126953125,-4.2724609375
252298.249146625,0.8875732421875,0.3065185546875,-0.268798828125,4.39453125,-5.126953125,-4.2724609375
252298.264444875,0.8875732421875,0.3182373046875,-0.268798828125,4.39453125,-5.126953125,-4.2724609375
252298.264700583,0.8875732421875,0.3182373046875,-0.277587890625,4.39453125,-5.126953125,-4.2724609375
252298.264863083,0.8875732421875,0.3182373046875,-0.277587890625,4.39453125,-3.662109375,-4.2724609375
252298.265147166,0.8875732421875,0.3182373046875,-0.277587890625,4.39453125,-3.662109375,-3.96728515625
252298.279076083,0.8917236328125,0.3182373046875,-0.277587890625,4.39453125,-3.662109375,-3.96728515625
252298.34082175,0.8917236328125,0.3194580078125,-0.277587890625,4.39453125,-3.662109375,-3.96728515625
252298.341377458,0.8917236328125,0.3194580078125,-0.27001953125,4.39453125,-3.662109375,-3.96728515625
252298.341604708,0.8917236328125,0.3194580078125,-0.27001953125,4.39453125,-1.15966796875,-3.96728515625
252298.341764208,0.8917236328125,0.3194580078125,-0.27001953125,4.39453125,-1.15966796875,-2.50244140625
252298.358997333,0.8917236328125,0.308837890625,-0.27001953125,4.39453125,-1.15966796875,-2.50244140625
252298.359092416,0.8917236328125,0.308837890625,-0.259765625,4.39453125,-1.15966796875,-2.50244140625
252298.359177458,0.8917236328125,0.308837890625,-0.259765625,-0.8544921875,-1.15966796875,-2.50244140625
252298.369061166,0.8917236328125,0.308837890625,-0.259765625,-0.8544921875,-1.15966796875,-0.91552734375
252298.399445041,0.9053955078125,0.308837890625,-0.259765625,-0.8544921875,-1.15966796875,-0.91552734375
252298.399745875,0.9053955078125,0.3223876953125,-0.259765625,-0.8544921875,-1.15966796875,-0.91552734375
252298.400038333,0.9053955078125,0.3223876953125,-0.2542724609375,-0.8544921875,-1.15966796875,-0.91552734375
252298.400188541,0.9053955078125,0.3223876953125,-0.2542724609375,-0.8544921875,3.72314453125,-0.91552734375
252298.425118416,0.9090576171875,0.3223876953125,-0.2542724609375,-0.8544921875,3.72314453125,-0.91552734375
252298.425217625,0.9090576171875,0.2886962890625,-0.2542724609375,-0.8544921875,3.72314453125,-0.91552734375
252298.425304458,0.9090576171875,0.2886962890625,-0.245361328125,-0.8544921875,3.72314453125,-0.91552734375
252298.429336666,0.9090576171875,0.2886962890625,-0.245361328125,-0.8544921875,1.89208984375,-0.91552734375
252298.429500875,0.9090576171875,0.2886962890625,-0.245361328125,-0.8544921875,1.89208984375,2.74658203125
252298.474853375,0.8980712890625,0.2886962890625,-0.245361328125,-0.8544921875,1.89208984375,2.74658203125
252298.475009,0.8980712890625,0.301513671875,-0.245361328125,-0.8544921875,1.89208984375,2.74658203125
252298.491308375,0.8980712890625,0.301513671875,-0.251220703125,-0.8544921875,1.89208984375,2.74658203125
252298.491390625,0.8980712890625,0.301513671875,-0.251220703125,-7.8125,1.89208984375,2.74658203125
252298.51820125,0.8961181640625,0.301513671875,-0.251220703125,-7.8125,1.89208984375,2.74658203125
252298.524321208,0.8961181640625,0.3038330078125,-0.251220703125,-7.8125,1.89208984375,2.74658203125
252298.524400041,0.8961181640625,0.3038330078125,-0.2548828125,-7.8125,1.89208984375,2.74658203125
252298.534353458,0.8961181640625,0.3038330078125,-0.2548828125,-7.8125,-1.03759765625,2.74658203125
252298.540736583,0.8961181640625,0.3038330078125,-0.2548828125,-7.8125,-1.03759765625,2.3193359375
252298.563121791,0.900146484375,0.3038330078125,-0.2548828125,-7.8125,-1.03759765625,2.3193359375
252298.564765541,0.900146484375,0.2879638671875,-0.2548828125,-7.8125,-1.03759765625,2.3193359375
252298.564962375,0.900146484375,0.2879638671875,-0.26171875,-7.8125,-1.03759765625,2.3193359375
252298.565078583,0.900146484375,0.2879638671875,-0.26171875,-5.2490234375,-1.03759765625,2.3193359375
252298.579174833,0.919677734375,0.2879638671875,-0.26171875,-5.2490234375,-1.03759765625,2.3193359375
252298.579387791,0.919677734375,0.2738037109375,-0.26171875,-5.2490234375,-1.03759765625,2.3193359375
252298.579512041,0.919677734375,0.2738037109375,-0.25537109375,-5.2490234375,-1.03759765625,2.3193359375
252298.624490416,0.919677734375,0.2738037109375,-0.25537109375,-5.2490234375,-2.5634765625,2.3193359375
252298.6410975,0.919677734375,0.2738037109375,-0.25537109375,-5.2490234375,-2.5634765625,1.708984375
252298.641325916,0.910888671875,0.2738037109375,-0.25537109375,-5.2490234375,-2.5634765625,1.708984375
252298.641443125,0.910888671875,0.2738037109375,-0.2724609375,-5.2490234375,-2.5634765625,1.708984375
252298.641514208,0.910888671875,0.2738037109375,-0.2724609375,-8.1787109375,-2.5634765625,1.708984375
252298.641583416,0.910888671875,0.2738037109375,-0.2724609375,-8.1787109375,-4.57763671875,1.708984375
252298.658159083,0.8800048828125,0.2738037109375,-0.2724609375,-8.1787109375,-4.57763671875,1.708984375
252298.658237958,0.8800048828125,0.3046875,-0.2724609375,-8.1787109375,-4.57763671875,1.708984375
252298.658310458,0.8800048828125,0.3046875,-0.2664794921875,-8.1787109375,-4.57763671875,1.708984375
252298.67429175,0.8800048828125,0.3046875,-0.2664794921875,-8.1787109375,-4.21142578125,1.708984375
252298.69102375,0.8800048828125,0.3046875,-0.2664794921875,-8.1787109375,-4.21142578125,-1.0986328125
252298.69957275,0.8890380859375,0.3046875,-0.2664794921875,-8.1787109375,-4.21142578125,-1.0986328125
252298.699720833,0.8890380859375,0.281982421875,-0.2664794921875,-8.1787109375,-4.21142578125,-1.0986328125
252298.7300315,0.8890380859375,0.281982421875,-0.2664794921875,-8.1787109375,-3.47900390625,-1.0986328125
252298.730129375,0.8890380859375,0.281982421875,-0.2664794921875,-8.1787109375,-3.47900390625,-0.18310546875
252298.745825791,0.8836669921875,0.281982421875,-0.2664794921875,-8.1787109375,-3.47900390625,-0.18310546875
252298.758840458,0.8836669921875,0.32373046875,-0.2664794921875,-8.1787109375,-3.47900390625,-0.18310546875
252298.774853208,0.8836669921875,0.32373046875,-0.325927734375,-8.1787109375,-3.47900390625,-0.18310546875
252298.775020458,0.8836669921875,0.32373046875,-0.325927734375,-8.1787109375,-3.47900390625,1.03759765625
252298.790923791,0.8988037109375,0.32373046875,-0.325927734375,-8.1787109375,-3.47900390625,1.03759765625
252298.791003666,0.8988037109375,0.4232177734375,-0.325927734375,-8.1787109375,-3.47900390625,1.03759765625
252298.792572708,0.8988037109375,0.4232177734375,-0.41015625,-8.1787109375,-3.47900390625,1.03759765625
252298.8193505,0.88134765625,0.4232177734375,-0.41015625,-8.1787109375,-3.47900390625,1.03759765625
252298.819623583,0.88134765625,0.428466796875,-0.41015625,-8.1787109375,-3.47900390625,1.03759765625
252298.819760375,0.88134765625,0.428466796875,-0.6051025390625,-8.1787109375,-3.47900390625,1.03759765625
252298.834091083,0.88134765625,0.428466796875,-0.6051025390625,-38.14697265625,-3.47900390625,1.03759765625
252298.857873291,0.8685302734375,0.428466796875,-0.6051025390625,-38.14697265625,-3.47900390625,1.03759765625
252298.857952583,0.8685302734375,0.473388671875,-0.6051025390625,-38.14697265625,-3.47900390625,1.03759765625
252298.858024083,0.8685302734375,0.473388671875,-0.614990234375,-38.14697265625,-3.47900390625,1.03759765625
252298.86563,0.8685302734375,0.473388671875,-0.614990234375,-38.14697265625,41.748046875,1.03759765625
252298.865803958,0.8685302734375,0.473388671875,-0.614990234375,-38.14697265625,41.748046875,32.3486328125
252298.924494583,0.8603515625,0.473388671875,-0.614990234375,-38.14697265625,41.748046875,32.3486328125
252298.93937,0.8603515625,0.6329345703125,-0.614990234375,-38.14697265625,41.748046875,32.3486328125
252298.93968225,0.8603515625,0.6329345703125,-0.7252197265625,-38.14697265625,41.748046875,32.3486328125
252298.939848208,0.8603515625,0.6329345703125,-0.7252197265625,-38.14697265625,80.810546875,32.3486328125
252298.940364625,0.8603515625,0.6329345703125,-0.7252197265625,-38.14697265625,80.810546875,53.77197265625
252298.954083666,0.8402099609375,0.6329345703125,-0.7252197265625,-38.14697265625,80.810546875,53.77197265625
252298.954356166,0.8402099609375,0.547607421875,-0.7252197265625,-38.14697265625,80.810546875,53.77197265625
252298.954467,0.8402099609375,0.547607421875,-0.8663330078125,-38.14697265625,80.810546875,53.77197265625
252298.999184,0.8402099609375,0.547607421875,-0.8663330078125,-38.14697265625,127.197265625,53.77197265625
252299.001052541,0.8402099609375,0.547607421875,-0.8663330078125,-38.14697265625,127.197265625,70.49560546875
252299.001556625,0.817138671875,0.547607421875,-0.8663330078125,-38.14697265625,127.197265625,70.49560546875
252299.001765458,0.817138671875,0.5435791015625,-0.8663330078125,-38.14697265625,127.197265625,70.49560546875
252299.029379,0.817138671875,0.5435791015625,-0.8663330078125,-38.14697265625,136.3525390625,70.49560546875
252299.029500458,0.817138671875,0.5435791015625,-0.8663330078125,-38.14697265625,136.3525390625,72.3876953125
252299.0443705,0.7857666015625,0.5435791015625,-0.8663330078125,-38.14697265625,136.3525390625,72.3876953125
252299.044632375,0.7857666015625,0.4959716796875,-0.8663330078125,-38.14697265625,136.3525390625,72.3876953125
252299.044722083,0.7857666015625,0.4959716796875,-0.8663330078125,-38.14697265625,150.7568359375,72.3876953125
252299.045090083,0.7857666015625,0.4959716796875,-0.8663330078125,-38.14697265625,150.7568359375,76.66015625
252299.072975916,0.727294921875,0.4959716796875,-0.8663330078125,-38.14697265625,150.7568359375,76.66015625
252299.074574291,0.727294921875,0.471435546875,-0.8663330078125,-38.14697265625,150.7568359375,76.66015625
252299.074736708,0.727294921875,0.471435546875,-0.998291015625,-38.14697265625,150.7568359375,76.66015625
252299.074821375,0.727294921875,0.471435546875,-0.998291015625,-30.76171875,150.7568359375,76.66015625
252299.090196208,0.652587890625,0.471435546875,-0.998291015625,-30.76171875,150.7568359375,76.66015625
252299.0902445,0.652587890625,0.49560546875,-0.998291015625,-30.76171875,150.7568359375,76.66015625
252299.090286125,0.652587890625,0.49560546875,-1.0087890625,-30.76171875,150.7568359375,76.66015625
252299.106749708,0.652587890625,0.49560546875,-1.0087890625,-30.76171875,165.283203125,76.66015625
252299.10679025,0.652587890625,0.49560546875,-1.0087890625,-30.76171875,165.283203125,78.2470703125
252299.122854625,0.6302490234375,0.49560546875,-1.0087890625,-30.76171875,165.283203125,78.2470703125
252299.122890583,0.6302490234375,0.4534912109375,-1.0087890625,-30.76171875,165.283203125,78.2470703125
252299.122921833,0.6302490234375,0.4534912109375,-1.0728759765625,-30.76171875,165.283203125,78.2470703125
252299.139497,0.6302490234375,0.4534912109375,-1.0728759765625,-30.76171875,173.64501953125,78.2470703125
252299.139535,0.6302490234375,0.4534912109375,-1.0728759765625,-30.76171875,173.64501953125,76.171875
252299.164242625,0.5513916015625,0.4534912109375,-1.0728759765625,-30.76171875,173.64501953125,76.171875
252299.164331583,0.5513916015625,0.426513671875,-1.0728759765625,-30.76171875,173.64501953125,76.171875
252299.164384416,0.5513916015625,0.426513671875,-1.1456298828125,-30.76171875,173.64501953125,76.171875
252299.165154291,0.5513916015625,0.426513671875,-1.1456298828125,-30.76171875,185.1806640625,76.171875
252299.224798458,0.425537109375,0.426513671875,-1.1456298828125,-30.76171875,185.1806640625,76.171875
252299.225115,0.425537109375,0.4130859375,-1.1456298828125,-30.76171875,185.1806640625,76.171875
252299.226094666,0.425537109375,0.4130859375,-0.9964599609375,-30.76171875,185.1806640625,76.171875
252299.22638025,0.425537109375,0.4130859375,-0.9964599609375,-23.62060546875,185.1806640625,76.171875
252299.239350791,0.2747802734375,0.4130859375,-0.9964599609375,-23.62060546875,185.1806640625,76.171875
252299.239648,0.2747802734375,0.4609375,-0.9964599609375,-23.62060546875,185.1806640625,76.171875
252299.23980175,0.2747802734375,0.4609375,-1.0018310546875,-23.62060546875,185.1806640625,76.171875
252299.254378708,0.2747802734375,0.4609375,-1.0018310546875,-23.62060546875,199.64599609375,76.171875
252299.254606875,0.2747802734375,0.4609375,-1.0018310546875,-23.62060546875,199.64599609375,64.5751953125
252299.273286833,0.1331787109375,0.4609375,-1.0018310546875,-23.62060546875,199.64599609375,64.5751953125
252299.273337375,0.1331787109375,0.271728515625,-1.0018310546875,-23.62060546875,199.64599609375,64.5751953125
252299.273381708,0.1331787109375,0.271728515625,-0.9306640625,-23.62060546875,199.64599609375,64.5751953125
252299.283865791,0.1331787109375,0.271728515625,-0.9306640625,-23.62060546875,202.08740234375,64.5751953125
252299.290245416,0.1331787109375,0.271728515625,-0.9306640625,-23.62060546875,202.08740234375,61.09619140625
252299.313741708,-0.03466796875,0.271728515625,-0.9306640625,-23.62060546875,202.08740234375,61.09619140625
252299.313871833,-0.03466796875,0.3050537109375,-0.9306640625,-23.62060546875,202.08740234375,61.09619140625
252299.314739708,-0.03466796875,0.3050537109375,-0.8743896484375,-23.62060546875,202.08740234375,61.09619140625
252299.314847416,-0.03466796875,0.3050537109375,-0.8743896484375,-23.62060546875,203.2470703125,61.09619140625
252299.343924125,-0.158447265625,0.3050537109375,-0.8743896484375,-23.62060546875,203.2470703125,61.09619140625
252299.344077875,-0.158447265625,0.2701416015625,-0.8743896484375,-23.62060546875,203.2470703125,61.09619140625
252299.34487175,-0.158447265625,0.2701416015625,-0.8751220703125,-23.62060546875,203.2470703125,61.09619140625
252299.344951791,-0.158447265625,0.2701416015625,-0.8751220703125,23.5595703125,203.2470703125,61.09619140625
252299.359195791,-0.1927490234375,0.2701416015625,-0.8751220703125,23.5595703125,203.2470703125,61.09619140625
252299.3593415,-0.1927490234375,0.3251953125,-0.8751220703125,23.5595703125,203.2470703125,61.09619140625
252299.359418916,-0.1927490234375,0.3251953125,-0.799560546875,23.5595703125,203.2470703125,61.09619140625
252299.388905,-0.1927490234375,0.3251953125,-0.799560546875,23.5595703125,205.322265625,61.09619140625
252299.390558875,-0.1927490234375,0.3251953125,-0.799560546875,23.5595703125,205.322265625,48.4619140625
252299.390836166,-0.2877197265625,0.3251953125,-0.799560546875,23.5595703125,205.322265625,48.4619140625
252299.390967916,-0.2877197265625,0.263427734375,-0.799560546875,23.5595703125,205.322265625,48.4619140625
252299.407947666,-0.2877197265625,0.263427734375,-0.799560546875,23.5595703125,202.94189453125,48.4619140625
252299.408045666,-0.2877197265625,0.263427734375,-0.799560546875,23.5595703125,202.94189453125,45.5322265625
252299.434011541,-0.3839111328125,0.263427734375,-0.799560546875,23.5595703125,202.94189453125,45.5322265625
252299.441229333,-0.3839111328125,0.28271484375,-0.799560546875,23.5595703125,202.94189453125,45.5322265625
252299.441309875,-0.3839111328125,0.28271484375,-0.534912109375,23.5595703125,202.94189453125,45.5322265625
252299.441385916,-0.3839111328125,0.28271484375,-0.534912109375,23.5595703125,206.48193359375,45.5322265625
252299.4640805,-0.432373046875,0.28271484375,-0.534912109375,23.5595703125,206.48193359375,45.5322265625
252299.464236958,-0.432373046875,0.25048828125,-0.534912109375,23.5595703125,206.48193359375,45.5322265625
252299.464960458,-0.432373046875,0.25048828125,-0.5025634765625,23.5595703125,206.48193359375,45.5322265625
252299.465128791,-0.432373046875,0.25048828125,-0.5025634765625,23.5595703125,209.41162109375,45.5322265625
252299.525402625,-0.5211181640625,0.25048828125,-0.5025634765625,23.5595703125,209.41162109375,45.5322265625
252299.525857,-0.5211181640625,0.1895751953125,-0.5025634765625,23.5595703125,209.41162109375,45.5322265625
252299.525984333,-0.5211181640625,0.1895751953125,-0.2303466796875,23.5595703125,209.41162109375,45.5322265625
252299.526162625,-0.5211181640625,0.1895751953125,-0.2303466796875,-10.986328125,209.41162109375,45.5322265625
252299.541790458,-0.57421875,0.1895751953125,-0.2303466796875,-10.986328125,209.41162109375,45.5322265625
252299.541888666,-0.57421875,0.1549072265625,-0.2303466796875,-10.986328125,209.41162109375,45.5322265625
252299.541976416,-0.57421875,0.1549072265625,-0.0955810546875,-10.986328125,209.41162109375,45.5322265625
252299.558717541,-0.57421875,0.1549072265625,-0.0955810546875,-10.986328125,188.8427734375,45.5322265625
252299.558830875,-0.57421875,0.1549072265625,-0.0955810546875,-10.986328125,188.8427734375,44.98291015625
252299.598733875,-0.662109375,0.1549072265625,-0.0955810546875,-10.986328125,188.8427734375,44.98291015625
252299.5999285,-0.662109375,0.120849609375,-0.0955810546875,-10.986328125,188.8427734375,44.98291015625
252299.600240333,-0.662109375,0.120849609375,0.276123046875,-10.986328125,188.8427734375,44.98291015625
252299.600406041,-0.662109375,0.120849609375,0.276123046875,-10.986328125,150.69580078125,44.98291015625
252299.624966291,-0.6981201171875,0.120849609375,0.276123046875,-10.986328125,150.69580078125,44.98291015625
252299.625045041,-0.6981201171875,0.1446533203125,0.276123046875,-10.986328125,150.69580078125,44.98291015625
252299.625128875,-0.6981201171875,0.1446533203125,0.545654296875,-10.986328125,150.69580078125,44.98291015625
252299.644457083,-0.7381591796875,0.1446533203125,0.545654296875,-10.986328125,150.69580078125,44.98291015625
252299.645896208,-0.7381591796875,0.2445068359375,0.545654296875,-10.986328125,150.69580078125,44.98291015625
252299.646150666,-0.7381591796875,0.2445068359375,0.6458740234375,-10.986328125,150.69580078125,44.98291015625
252299.646288583,-0.7381591796875,0.2445068359375,0.6458740234375,-24.2919921875,150.69580078125,44.98291015625
252299.688305833,-0.7386474609375,0.2445068359375,0.6458740234375,-24.2919921875,150.69580078125,44.98291015625
252299.6901665,-0.7386474609375,0.290771484375,0.6458740234375,-24.2919921875,150.69580078125,44.98291015625
252299.690540458,-0.7386474609375,0.290771484375,0.70849609375,-24.2919921875,150.69580078125,44.98291015625
252299.690720916,-0.7386474609375,0.290771484375,0.70849609375,16.66259765625,150.69580078125,44.98291015625
252299.7078615,-0.767333984375,0.290771484375,0.70849609375,16.66259765625,150.69580078125,44.98291015625
252299.707940666,-0.767333984375,0.25244140625,0.70849609375,16.66259765625,150.69580078125,44.98291015625
252299.708013666,-0.767333984375,0.25244140625,0.5408935546875,16.66259765625,150.69580078125,44.98291015625
252299.724797083,-0.767333984375,0.25244140625,0.5408935546875,16.66259765625,-22.27783203125,44.98291015625
252299.724888791,-0.767333984375,0.25244140625,0.5408935546875,16.66259765625,-22.27783203125,0.48828125
252299.734342958,-0.7855224609375,0.25244140625,0.5408935546875,16.66259765625,-22.27783203125,0.48828125
252299.734579666,-0.7855224609375,0.1556396484375,0.5408935546875,16.66259765625,-22.27783203125,0.48828125
252299.734689666,-0.7855224609375,0.1556396484375,0.3519287109375,16.66259765625,-22.27783203125,0.48828125
252299.751658541,-0.7855224609375,0.1556396484375,0.3519287109375,16.66259765625,-71.83837890625,0.48828125
252299.757543,-0.7855224609375,0.1556396484375,0.3519287109375,16.66259765625,-71.83837890625,-6.53076171875
252299.825731666,-0.7952880859375,0.1556396484375,0.3519287109375,16.66259765625,-71.83837890625,-6.53076171875
252299.826198541,-0.7952880859375,0.19677734375,0.3519287109375,16.66259765625,-71.83837890625,-6.53076171875
252299.826324958,-0.7952880859375,0.19677734375,0.25341796875,16.66259765625,-71.83837890625,-6.53076171875
252299.826505791,-0.7952880859375,0.19677734375,0.25341796875,50.9033203125,-71.83837890625,-6.53076171875
252299.841881916,-0.8173828125,0.19677734375,0.25341796875,50.9033203125,-71.83837890625,-6.53076171875
252299.841979208,-0.8173828125,0.129638671875,0.25341796875,50.9033203125,-71.83837890625,-6.53076171875
252299.842065791,-0.8173828125,0.129638671875,0.1141357421875,50.9033203125,-71.83837890625,-6.53076171875
252299.858690208,-0.8173828125,0.129638671875,0.1141357421875,50.9033203125,-110.83984375,-6.53076171875
252299.869538166,-0.8173828125,0.129638671875,0.1141357421875,50.9033203125,-110.83984375,-18.6767578125
252299.875015166,-0.7381591796875,0.129638671875,0.1141357421875,50.9033203125,-110.83984375,-18.6767578125
252299.875155291,-0.7381591796875,0.129150390625,0.1141357421875,50.9033203125,-110.83984375,-18.6767578125
252299.875245083,-0.7381591796875,0.129150390625,-0.0682373046875,50.9033203125,-110.83984375,-18.6767578125
252299.88416675,-0.7381591796875,0.129150390625,-0.0682373046875,50.9033203125,-142.02880859375,-18.6767578125
252299.884367625,-0.7381591796875,0.129150390625,-0.0682373046875,50.9033203125,-142.02880859375,-41.32080078125
252299.899429166,-0.7279052734375,0.129150390625,-0.0682373046875,50.9033203125,-142.02880859375,-41.32080078125
252299.899668208,-0.7279052734375,0.17236328125,-0.0682373046875,50.9033203125,-142.02880859375,-41.32080078125
252299.8997985,-0.7279052734375,0.17236328125,-0.0257568359375,50.9033203125,-142.02880859375,-41.32080078125
252299.915158916,-0.7279052734375,0.17236328125,-0.0257568359375,50.9033203125,-155.57861328125,-41.32080078125
252299.915375416,-0.7279052734375,0.17236328125,-0.0257568359375,50.9033203125,-155.57861328125,-54.3212890625
252299.9439155,-0.6156005859375,0.17236328125,-0.0257568359375,50.9033203125,-155.57861328125,-54.3212890625
252299.944094,-0.6156005859375,0.202392578125,-0.0257568359375,50.9033203125,-155.57861328125,-54.3212890625
252299.944648416,-0.6156005859375,0.202392578125,-0.239013671875,50.9033203125,-155.57861328125,-54.3212890625
252299.959288291,-0.6156005859375,0.202392578125,-0.239013671875,50.9033203125,-167.54150390625,-54.3212890625
252299.959556708,-0.6156005859375,0.202392578125,-0.239013671875,50.9033203125,-167.54150390625,-61.34033203125
252299.989000541,-0.5550537109375,0.202392578125,-0.239013671875,50.9033203125,-167.54150390625,-61.34033203125
252299.990572041,-0.5550537109375,0.262451171875,-0.239013671875,50.9033203125,-167.54150390625,-61.34033203125
252299.990799125,-0.5550537109375,0.262451171875,-0.3468017578125,50.9033203125,-167.54150390625,-61.34033203125
252299.99088675,-0.5550537109375,0.262451171875,-0.3468017578125,12.14599609375,-167.54150390625,-61.34033203125
252300.008600541,-0.403076171875,0.262451171875,-0.3468017578125,12.14599609375,-167.54150390625,-61.34033203125
252300.010059916,-0.403076171875,0.48681640625,-0.3468017578125,12.14599609375,-167.54150390625,-61.34033203125
252300.010148583,-0.403076171875,0.48681640625,-0.563720703125,12.14599609375,-167.54150390625,-61.34033203125
252300.02472275,-0.403076171875,0.48681640625,-0.563720703125,12.14599609375,-175.9033203125,-61.34033203125
252300.024791208,-0.403076171875,0.48681640625,-0.563720703125,12.14599609375,-175.9033203125,-82.70263671875
252300.050156541,-0.381591796875,0.48681640625,-0.563720703125,12.14599609375,-175.9033203125,-82.70263671875
252300.050460833,-0.381591796875,0.3389892578125,-0.563720703125,12.14599609375,-175.9033203125,-82.70263671875
252300.050583791,-0.381591796875,0.3389892578125,-0.91796875,12.14599609375,-175.9033203125,-82.70263671875
252300.05084575,-0.381591796875,0.3389892578125,-0.91796875,12.14599609375,-167.236328125,-82.70263671875
252300.065593916,-0.305908203125,0.3389892578125,-0.91796875,12.14599609375,-167.236328125,-82.70263671875
252300.066091541,-0.305908203125,0.423828125,-0.91796875,12.14599609375,-167.236328125,-82.70263671875
252300.066428291,-0.305908203125,0.423828125,-0.661376953125,12.14599609375,-167.236328125,-82.70263671875
252300.080521708,-0.305908203125,0.423828125,-0.661376953125,12.14599609375,-161.80419921875,-82.70263671875
252300.081271791,-0.305908203125,0.423828125,-0.661376953125,12.14599609375,-161.80419921875,-94.29931640625
252300.12531875,-0.1260986328125,0.423828125,-0.661376953125,12.14599609375,-161.80419921875,-94.29931640625
252300.125486458,-0.1260986328125,0.5123291015625,-0.661376953125,12.14599609375,-161.80419921875,-94.29931640625
252300.125569041,-0.1260986328125,0.5123291015625,-0.6641845703125,12.14599609375,-161.80419921875,-94.29931640625
252300.139006083,-0.1260986328125,0.5123291015625,-0.6641845703125,12.14599609375,-171.08154296875,-94.29931640625
252300.139107416,-0.1260986328125,0.5123291015625,-0.6641845703125,12.14599609375,-171.08154296875,-85.3271484375
252300.157551166,0.12841796875,0.5123291015625,-0.6641845703125,12.14599609375,-171.08154296875,-85.3271484375
252300.157595125,0.12841796875,0.479248046875,-0.6641845703125,12.14599609375,-171.08154296875,-85.3271484375
252300.157629875,0.12841796875,0.479248046875,-0.8525390625,12.14599609375,-171.08154296875,-85.3271484375
252300.1736135,0.12841796875,0.479248046875,-0.8525390625,12.14599609375,-173.4619140625,-85.3271484375
252300.184207333,0.12841796875,0.479248046875,-0.8525390625,12.14599609375,-173.4619140625,-109.68017578125
252300.190134666,0.27197265625,0.479248046875,-0.8525390625,12.14599609375,-173.4619140625,-109.68017578125
252300.190216833,0.27197265625,0.8836669921875,-0.8525390625,12.14599609375,-173.4619140625,-109.68017578125
252300.190291416,0.27197265625,0.8836669921875,-0.86572265625,12.14599609375,-173.4619140625,-109.68017578125
252300.198987958,0.27197265625,0.8836669921875,-0.86572265625,12.14599609375,-172.7294921875,-109.68017578125
252300.199071583,0.27197265625,0.8836669921875,-0.86572265625,12.14599609375,-172.7294921875,-85.8154296875
252300.2139665,0.38330078125,0.8836669921875,-0.86572265625,12.14599609375,-172.7294921875,-85.8154296875
252300.214034375,0.38330078125,0.5338134765625,-0.86572265625,12.14599609375,-172.7294921875,-85.8154296875
252300.21406875,0.38330078125,0.5338134765625,-1.2366943359375,12.14599609375,-172.7294921875,-85.8154296875
252300.229223083,0.38330078125,0.5338134765625,-1.2366943359375,12.14599609375,-163.87939453125,-85.8154296875
252300.229323833,0.38330078125,0.5338134765625,-1.2366943359375,12.14599609375,-163.87939453125,-85.63232421875
252300.24553175,0.406982421875,0.5338134765625,-1.2366943359375,12.14599609375,-163.87939453125,-85.63232421875
252300.245657666,0.406982421875,0.472900390625,-1.2366943359375,12.14599609375,-163.87939453125,-85.63232421875
252300.245735208,0.406982421875,0.472900390625,-1.058349609375,12.14599609375,-163.87939453125,-85.63232421875
252300.25913725,0.406982421875,0.472900390625,-1.058349609375,12.14599609375,-151.4892578125,-85.63232421875
252300.25922375,0.406982421875,0.472900390625,-1.058349609375,12.14599609375,-151.4892578125,-92.71240234375
252300.273952083,0.4285888671875,0.472900390625,-1.058349609375,12.14599609375,-151.4892578125,-92.71240234375
252300.274062958,0.4285888671875,0.7965087890625,-1.058349609375,12.14599609375,-151.4892578125,-92.71240234375
252300.274096958,0.4285888671875,0.7965087890625,-0.7884521484375,12.14599609375,-151.4892578125,-92.71240234375
252300.28957225,0.4285888671875,0.7965087890625,-0.7884521484375,12.14599609375,-145.6298828125,-92.71240234375
252300.289611666,0.4285888671875,0.7965087890625,-0.7884521484375,12.14599609375,-145.6298828125,-75.25634765625
252300.333587833,0.5146484375,0.7965087890625,-0.7884521484375,12.14599609375,-145.6298828125,-75.25634765625
252300.335090958,0.5146484375,0.4625244140625,-0.7884521484375,12.14599609375,-145.6298828125,-75.25634765625
252300.335191416,0.5146484375,0.4625244140625,-1.014892578125,12.14599609375,-145.6298828125,-75.25634765625
252300.3352695,0.5146484375,0.4625244140625,-1.014892578125,54.99267578125,-145.6298828125,-75.25634765625
252300.356817208,0.5948486328125,0.4625244140625,-1.014892578125,54.99267578125,-145.6298828125,-75.25634765625
252300.3569685,0.5948486328125,0.587158203125,-1.014892578125,54.99267578125,-145.6298828125,-75.25634765625
252300.357002125,0.5948486328125,0.587158203125,-0.9913330078125,54.99267578125,-145.6298828125,-75.25634765625
252300.364137416,0.5948486328125,0.587158203125,-0.9913330078125,54.99267578125,-134.765625,-75.25634765625
252300.364205583,0.5948486328125,0.587158203125,-0.9913330078125,54.99267578125,-134.765625,-94.6044921875
252300.378997958,0.6729736328125,0.587158203125,-0.9913330078125,54.99267578125,-134.765625,-94.6044921875
252300.424045458,0.6729736328125,0.733154296875,-0.9913330078125,54.99267578125,-134.765625,-94.6044921875
252300.424138625,0.6729736328125,0.733154296875,-0.7623291015625,54.99267578125,-134.765625,-94.6044921875
252300.4251795,0.6729736328125,0.733154296875,-0.7623291015625,54.99267578125,-114.56298828125,-94.6044921875
252300.4252625,0.6729736328125,0.733154296875,-0.7623291015625,54.99267578125,-114.56298828125,-67.2607421875
252300.440171916,0.6729736328125,0.5264892578125,-0.7623291015625,54.99267578125,-114.56298828125,-67.2607421875
252300.440214333,0.6729736328125,0.5264892578125,-0.8262939453125,54.99267578125,-114.56298828125,-67.2607421875
252300.440248458,0.6729736328125,0.5264892578125,-0.8262939453125,22.03369140625,-114.56298828125,-67.2607421875
252300.456490708,0.6729736328125,0.5264892578125,-0.8262939453125,22.03369140625,-114.56298828125,-65.36865234375
252300.473333708,0.8367919921875,0.5264892578125,-0.8262939453125,22.03369140625,-114.56298828125,-65.36865234375
252300.498313125,0.8367919921875,0.62939453125,-0.8262939453125,22.03369140625,-114.56298828125,-65.36865234375
252300.499687833,0.8367919921875,0.62939453125,-0.552001953125,22.03369140625,-114.56298828125,-65.36865234375
252300.499781125,0.8367919921875,0.62939453125,-0.552001953125,22.03369140625,-112.24365234375,-65.36865234375
252300.499819416,0.8367919921875,0.62939453125,-0.552001953125,22.03369140625,-112.24365234375,-72.6318359375
252300.514356375,0.950439453125,0.62939453125,-0.552001953125,22.03369140625,-112.24365234375,-72.6318359375
252300.51470025,0.950439453125,0.457763671875,-0.552001953125,22.03369140625,-112.24365234375,-72.6318359375
252300.515648833,0.950439453125,0.457763671875,-0.58203125,22.03369140625,-112.24365234375,-72.6318359375
252300.5430345,0.950439453125,0.457763671875,-0.58203125,22.03369140625,-112.24365234375,-71.83837890625
252300.558857708,0.9473876953125,0.457763671875,-0.58203125,22.03369140625,-112.24365234375,-71.83837890625
252300.558953125,0.9473876953125,0.5357666015625,-0.58203125,22.03369140625,-112.24365234375,-71.83837890625
252300.55900775,0.9473876953125,0.5357666015625,-0.466064453125,22.03369140625,-112.24365234375,-71.83837890625
252300.575023541,0.9473876953125,0.5357666015625,-0.466064453125,22.03369140625,-111.02294921875,-71.83837890625
252300.575268625,0.9473876953125,0.5357666015625,-0.466064453125,22.03369140625,-111.02294921875,-67.0166015625
252300.60417775,0.944580078125,0.5357666015625,-0.466064453125,22.03369140625,-111.02294921875,-67.0166015625
252300.60428875,0.944580078125,0.4468994140625,-0.466064453125,22.03369140625,-111.02294921875,-67.0166015625
252300.604909583,0.944580078125,0.4468994140625,-0.5892333984375,22.03369140625,-111.02294921875,-67.0166015625
252300.604997166,0.944580078125,0.4468994140625,-0.5892333984375,19.8974609375,-111.02294921875,-67.0166015625
252300.623109958,0.87353515625,0.4468994140625,-0.5892333984375,19.8974609375,-111.02294921875,-67.0166015625
252300.623148875,0.87353515625,0.444091796875,-0.5892333984375,19.8974609375,-111.02294921875,-67.0166015625
252300.623180833,0.87353515625,0.444091796875,-0.578125,19.8974609375,-111.02294921875,-67.0166015625
252300.640601583,0.87353515625,0.444091796875,-0.578125,19.8974609375,-67.7490234375,-67.0166015625
252300.640645125,0.87353515625,0.444091796875,-0.578125,19.8974609375,-67.7490234375,-43.9453125
252300.64916525,0.8507080078125,0.444091796875,-0.578125,19.8974609375,-67.7490234375,-43.9453125
252300.649262708,0.8507080078125,0.4542236328125,-0.578125,19.8974609375,-67.7490234375,-43.9453125
252300.650247916,0.8507080078125,0.4542236328125,-0.5179443359375,19.8974609375,-67.7490234375,-43.9453125
252300.664080708,0.8507080078125,0.4542236328125,-0.5179443359375,19.8974609375,-40.10009765625,-43.9453125
252300.664178208,0.8507080078125,0.4542236328125,-0.5179443359375,19.8974609375,-40.10009765625,-28.3203125
252300.724767041,0.8359375,0.4542236328125,-0.5179443359375,19.8974609375,-40.10009765625,-28.3203125
252300.724916541,0.8359375,0.4781494140625,-0.5179443359375,19.8974609375,-40.10009765625,-28.3203125
252300.724977458,0.8359375,0.4781494140625,-0.4661865234375,19.8974609375,-40.10009765625,-28.3203125
252300.725373458,0.8359375,0.4781494140625,-0.4661865234375,-16.66259765625,-40.10009765625,-28.3203125
252300.739961375,0.8546142578125,0.4781494140625,-0.4661865234375,-16.66259765625,-40.10009765625,-28.3203125
252300.740004708,0.8546142578125,0.47021484375,-0.4661865234375,-16.66259765625,-40.10009765625,-28.3203125
252300.740038083,0.8546142578125,0.47021484375,-0.40185546875,-16.66259765625,-40.10009765625,-28.3203125
252300.756451875,0.8546142578125,0.47021484375,-0.40185546875,-16.66259765625,-3.173828125,-28.3203125
252300.756494208,0.8546142578125,0.47021484375,-0.40185546875,-16.66259765625,-3.173828125,-5.0048828125
252300.783742916,0.8900146484375,0.47021484375,-0.40185546875,-16.66259765625,-3.173828125,-5.0048828125
252300.789917416,0.8900146484375,0.4134521484375,-0.40185546875,-16.66259765625,-3.173828125,-5.0048828125
252300.790089291,0.8900146484375,0.4134521484375,-0.3284912109375,-16.66259765625,-3.173828125,-5.0048828125
252300.790124625,0.8900146484375,0.4134521484375,-0.3284912109375,-4.8828125,-3.173828125,-5.0048828125
252300.799214,0.885498046875,0.4134521484375,-0.3284912109375,-4.8828125,-3.173828125,-5.0048828125
252300.799306916,0.885498046875,0.3958740234375,-0.3284912109375,-4.8828125,-3.173828125,-5.0048828125
252300.7997965,0.885498046875,0.3958740234375,-0.2813720703125,-4.8828125,-3.173828125,-5.0048828125
252300.8142205,0.885498046875,0.3958740234375,-0.2813720703125,-4.8828125,1.46484375,-5.0048828125
252300.814278958,0.885498046875,0.3958740234375,-0.2813720703125,-4.8828125,1.46484375,15.13671875
252300.873681083,0.8790283203125,0.3958740234375,-0.2813720703125,-4.8828125,1.46484375,15.13671875
252300.88997525,0.8790283203125,0.308349609375,-0.2813720703125,-4.8828125,1.46484375,15.13671875
252300.890014416,0.8790283203125,0.308349609375,-0.3245849609375,-4.8828125,1.46484375,15.13671875
252300.906988208,0.8790283203125,0.308349609375,-0.3245849609375,12.87841796875,1.46484375,15.13671875
252300.907030333,0.94091796875,0.308349609375,-0.3245849609375,12.87841796875,1.46484375,15.13671875
252300.907063,0.94091796875,0.308349609375,-0.310546875,12.87841796875,1.46484375,15.13671875
252300.907093833,0.94091796875,0.308349609375,-0.310546875,7.01904296875,1.46484375,15.13671875
252300.923597666,0.8936767578125,0.308349609375,-0.310546875,7.01904296875,1.46484375,15.13671875
252300.923644333,0.8936767578125,0.309814453125,-0.310546875,7.01904296875,1.46484375,15.13671875
252300.923679875,0.8936767578125,0.309814453125,-0.2779541015625,7.01904296875,1.46484375,15.13671875
252300.948730916,0.8936767578125,0.309814453125,-0.2779541015625,7.01904296875,13.3056640625,15.13671875
252300.948829541,0.8936767578125,0.309814453125,-0.2779541015625,7.01904296875,13.3056640625,10.43701171875
NEW_REP,,,,,,
252301.040192333,0.8929443359375,0.309814453125,-0.2779541015625,7.01904296875,13.3056640625,10.43701171875
252301.040238416,0.8929443359375,0.3375244140625,-0.2779541015625,7.01904296875,13.3056640625,10.43701171875
252301.04027125,0.8929443359375,0.3375244140625,-0.34130859375,7.01904296875,13.3056640625,10.43701171875
252301.040301958,0.8861083984375,0.3375244140625,-0.34130859375,7.01904296875,13.3056640625,10.43701171875
252301.070613208,0.8861083984375,0.3375244140625,-0.3912353515625,7.01904296875,13.3056640625,10.43701171875
252301.072285958,0.8861083984375,0.3375244140625,-0.3912353515625,-12.3291015625,13.3056640625,10.43701171875
252301.073772291,0.8861083984375,0.3375244140625,-0.3912353515625,-12.3291015625,30.517578125,10.43701171875
252301.098004041,0.8778076171875,0.3375244140625,-0.3912353515625,-12.3291015625,30.517578125,10.43701171875
252301.099654958,0.8778076171875,0.40625,-0.3912353515625,-12.3291015625,30.517578125,10.43701171875
252301.099721375,0.8778076171875,0.40625,-0.57470703125,-12.3291015625,30.517578125,10.43701171875
252301.099756041,0.8778076171875,0.40625,-0.57470703125,-12.3291015625,63.1103515625,10.43701171875
252301.114136875,0.8568115234375,0.40625,-0.57470703125,-12.3291015625,63.1103515625,10.43701171875
252301.114261833,0.8568115234375,0.57763671875,-0.57470703125,-12.3291015625,63.1103515625,10.43701171875
252301.114295833,0.8568115234375,0.57763671875,-0.68017578125,-12.3291015625,63.1103515625,10.43701171875
252301.129232625,0.8568115234375,0.57763671875,-0.68017578125,-12.3291015625,83.251953125,10.43701171875
252301.129355708,0.8568115234375,0.57763671875,-0.68017578125,-12.3291015625,83.251953125,48.583984375
252301.158036041,0.86083984375,0.57763671875,-0.68017578125,-12.3291015625,83.251953125,48.583984375
252301.174317541,0.86083984375,0.58154296875,-0.68017578125,-12.3291015625,83.251953125,48.583984375
252301.174417625,0.86083984375,0.58154296875,-0.8309326171875,-12.3291015625,83.251953125,48.583984375
252301.17445875,0.86083984375,0.58154296875,-0.8309326171875,-20.56884765625,83.251953125,48.583984375
252301.175363,0.87255859375,0.58154296875,-0.8309326171875,-20.56884765625,83.251953125,48.583984375
252301.175470166,0.87255859375,0.55029296875,-0.8309326171875,-20.56884765625,83.251953125,48.583984375
252301.190220125,0.87255859375,0.55029296875,-0.8946533203125,-20.56884765625,83.251953125,48.583984375
252301.190257708,0.87255859375,0.55029296875,-0.8946533203125,-35.5224609375,83.251953125,48.583984375
252301.190288875,0.87255859375,0.55029296875,-0.8946533203125,-35.5224609375,122.55859375,48.583984375
252301.219120583,0.837890625,0.55029296875,-0.8946533203125,-35.5224609375,122.55859375,48.583984375
252301.223927666,0.837890625,0.652099609375,-0.8946533203125,-35.5224609375,122.55859375,48.583984375
252301.224019083,0.837890625,0.652099609375,-0.9390869140625,-35.5224609375,122.55859375,48.583984375
252301.224054708,0.837890625,0.652099609375,-0.9390869140625,-52.001953125,122.55859375,48.583984375
252301.248996458,0.810302734375,0.652099609375,-0.9390869140625,-52.001953125,122.55859375,48.583984375
252301.249087291,0.810302734375,0.69873046875,-0.9390869140625,-52.001953125,122.55859375,48.583984375
252301.249781875,0.810302734375,0.69873046875,-1.058349609375,-52.001953125,122.55859375,48.583984375
252301.249872458,0.810302734375,0.69873046875,-1.058349609375,-52.001953125,160.15625,48.583984375
252301.278943583,0.761962890625,0.69873046875,-1.058349609375,-52.001953125,160.15625,48.583984375
252301.2790485,0.761962890625,0.635009765625,-1.058349609375,-52.001953125,160.15625,48.583984375
252301.27969125,0.761962890625,0.635009765625,-1.115234375,-52.001953125,160.15625,48.583984375
252301.279784333,0.761962890625,0.635009765625,-1.115234375,-23.98681640625,160.15625,48.583984375
252301.324171833,0.69580078125,0.635009765625,-1.115234375,-23.98681640625,160.15625,48.583984375
252301.32640925,0.69580078125,0.6351318359375,-1.115234375,-23.98681640625,160.15625,48.583984375
252301.32655375,0.69580078125,0.6351318359375,-1.1270751953125,-23.98681640625,160.15625,48.583984375
252301.339864958,0.69580078125,0.6351318359375,-1.1270751953125,-23.98681640625,190.5517578125,48.583984375
252301.339904083,0.69580078125,0.6351318359375,-1.1270751953125,-23.98681640625,190.5517578125,90.4541015625
252301.368872875,0.501220703125,0.6351318359375,-1.1270751953125,-23.98681640625,190.5517578125,90.4541015625
252301.368969,0.501220703125,0.4970703125,-1.1270751953125,-23.98681640625,190.5517578125,90.4541015625
252301.369959916,0.501220703125,0.4970703125,-1.135498046875,-23.98681640625,190.5517578125,90.4541015625
252301.37003525,0.501220703125,0.4970703125,-1.135498046875,-5.55419921875,190.5517578125,90.4541015625
252301.398906625,0.3851318359375,0.4970703125,-1.135498046875,-5.55419921875,190.5517578125,90.4541015625
252301.414899791,0.3851318359375,0.494384765625,-1.135498046875,-5.55419921875,190.5517578125,90.4541015625
252301.414994041,0.3851318359375,0.494384765625,-1.1207275390625,-5.55419921875,190.5517578125,90.4541015625
252301.415027333,0.3851318359375,0.494384765625,-1.1207275390625,-8.544921875,190.5517578125,90.4541015625
252301.416430083,0.303955078125,0.494384765625,-1.1207275390625,-8.544921875,190.5517578125,90.4541015625
252301.431840083,0.303955078125,0.494384765625,-1.115966796875,-8.544921875,190.5517578125,90.4541015625
252301.431942541,0.303955078125,0.494384765625,-1.115966796875,11.90185546875,190.5517578125,90.4541015625
252301.431976166,0.303955078125,0.494384765625,-1.115966796875,11.90185546875,230.04150390625,90.4541015625
252301.504960083,0.2440185546875,0.494384765625,-1.115966796875,11.90185546875,230.04150390625,90.4541015625
252301.505151958,0.2440185546875,0.4091796875,-1.115966796875,11.90185546875,230.04150390625,90.4541015625
252301.505229166,0.2440185546875,0.4091796875,-1.1038818359375,11.90185546875,230.04150390625,90.4541015625
252301.505338708,0.2440185546875,0.4091796875,-1.1038818359375,11.90185546875,238.28125,90.4541015625
252301.524107791,-0.194580078125,0.4091796875,-1.1038818359375,11.90185546875,238.28125,90.4541015625
252301.524159416,-0.194580078125,0.2799072265625,-1.1038818359375,11.90185546875,238.28125,90.4541015625
252301.524196458,-0.194580078125,0.2799072265625,-0.6199951171875,11.90185546875,238.28125,90.4541015625
252301.543897458,-0.194580078125,0.2799072265625,-0.6199951171875,11.90185546875,241.76025390625,90.4541015625
252301.543949,-0.194580078125,0.2799072265625,-0.6199951171875,11.90185546875,241.76025390625,84.8388671875
252301.549111041,-0.18212890625,0.2799072265625,-0.6199951171875,11.90185546875,241.76025390625,84.8388671875
252301.549224541,-0.18212890625,0.2547607421875,-0.6199951171875,11.90185546875,241.76025390625,84.8388671875
252301.5492885,-0.18212890625,0.2547607421875,-0.6722412109375,11.90185546875,241.76025390625,84.8388671875
252301.565019708,-0.18212890625,0.2547607421875,-0.6722412109375,11.90185546875,224.67041015625,84.8388671875
252301.565615375,-0.18212890625,0.2547607421875,-0.6722412109375,11.90185546875,224.67041015625,74.89013671875
252301.625175583,-0.299072265625,0.2547607421875,-0.6722412109375,11.90185546875,224.67041015625,74.89013671875
252301.625343375,-0.299072265625,0.199462890625,-0.6722412109375,11.90185546875,224.67041015625,74.89013671875
252301.625418708,-0.299072265625,0.199462890625,-0.1614990234375,11.90185546875,224.67041015625,74.89013671875
252301.625515166,-0.299072265625,0.199462890625,-0.1614990234375,11.90185546875,210.8154296875,74.89013671875
252301.684218708,-0.531005859375,0.199462890625,-0.1614990234375,11.90185546875,210.8154296875,74.89013671875
252301.684334583,-0.531005859375,0.170166015625,-0.1614990234375,11.90185546875,210.8154296875,74.89013671875
252301.684370166,-0.531005859375,0.170166015625,-0.2666015625,11.90185546875,210.8154296875,74.89013671875
252301.713633083,-0.531005859375,0.170166015625,-0.2666015625,11.90185546875,178.1005859375,74.89013671875
252301.713719625,-0.531005859375,0.170166015625,-0.2666015625,11.90185546875,178.1005859375,56.2744140625
252301.729349416,-0.611572265625,0.170166015625,-0.2666015625,11.90185546875,178.1005859375,56.2744140625
252301.72945975,-0.611572265625,0.307373046875,-0.2666015625,11.90185546875,178.1005859375,56.2744140625
252301.729497666,-0.611572265625,0.307373046875,-0.2666015625,11.90185546875,138.5498046875,56.2744140625
252301.730052333,-0.611572265625,0.307373046875,-0.2666015625,11.90185546875,138.5498046875,36.376953125
252301.744120791,-0.6966552734375,0.307373046875,-0.2666015625,11.90185546875,138.5498046875,36.376953125
252301.744386625,-0.6966552734375,0.0782470703125,-0.2666015625,11.90185546875,138.5498046875,36.376953125
252301.744421916,-0.6966552734375,0.0782470703125,0.4599609375,11.90185546875,138.5498046875,36.376953125
252301.759364833,-0.6966552734375,0.0782470703125,0.4599609375,11.90185546875,104.06494140625,36.376953125
252301.759471666,-0.6966552734375,0.0782470703125,0.4599609375,11.90185546875,104.06494140625,27.7099609375
252301.774307166,-0.6929931640625,0.0782470703125,0.4599609375,11.90185546875,104.06494140625,27.7099609375
252301.774405625,-0.6929931640625,0.18310546875,0.4599609375,11.90185546875,104.06494140625,27.7099609375
252301.7744465,-0.6929931640625,0.18310546875,0.65478515625,11.90185546875,104.06494140625,27.7099609375
252301.803859416,-0.6929931640625,0.18310546875,0.65478515625,11.90185546875,67.56591796875,27.7099609375
252301.803945166,-0.6929931640625,0.18310546875,0.65478515625,11.90185546875,67.56591796875,14.83154296875
252301.804957875,-0.738037109375,0.18310546875,0.65478515625,11.90185546875,67.56591796875,14.83154296875
252301.805061041,-0.738037109375,0.2420654296875,0.65478515625,11.90185546875,67.56591796875,14.83154296875
252301.823501291,-0.738037109375,0.2420654296875,0.65478515625,11.90185546875,11.04736328125,14.83154296875
252301.823546083,-0.738037109375,0.2420654296875,0.65478515625,11.90185546875,11.04736328125,6.2255859375
252301.849011166,-0.763671875,0.2420654296875,0.65478515625,11.90185546875,11.04736328125,6.2255859375
252301.849105666,-0.763671875,0.1644287109375,0.65478515625,11.90185546875,11.04736328125,6.2255859375
252301.849834625,-0.763671875,0.1644287109375,0.494140625,11.90185546875,11.04736328125,6.2255859375
252301.849903708,-0.763671875,0.1644287109375,0.494140625,15.19775390625,11.04736328125,6.2255859375
252301.8929735,-0.767333984375,0.1644287109375,0.494140625,15.19775390625,11.04736328125,6.2255859375
252301.894762958,-0.767333984375,0.187744140625,0.494140625,15.19775390625,11.04736328125,6.2255859375
252301.894799875,-0.767333984375,0.187744140625,0.4185791015625,15.19775390625,11.04736328125,6.2255859375
252301.894903125,-0.767333984375,0.187744140625,0.4185791015625,15.19775390625,-72.20458984375,6.2255859375
252301.909186416,-0.76123046875,0.187744140625,0.4185791015625,15.19775390625,-72.20458984375,6.2255859375
252301.909316291,-0.76123046875,0.282470703125,0.4185791015625,15.19775390625,-72.20458984375,6.2255859375
252301.910351041,-0.76123046875,0.282470703125,0.296875,15.19775390625,-72.20458984375,6.2255859375
252301.924171458,-0.76123046875,0.282470703125,0.296875,15.19775390625,-103.45458984375,6.2255859375
252301.984140958,-0.76123046875,0.282470703125,0.296875,15.19775390625,-103.45458984375,-14.58740234375
252301.984277666,-0.7259521484375,0.282470703125,0.296875,15.19775390625,-103.45458984375,-14.58740234375
252301.991074416,-0.7259521484375,0.1649169921875,0.296875,15.19775390625,-103.45458984375,-14.58740234375
252301.999140083,-0.7259521484375,0.1649169921875,0.296875,15.19775390625,-129.82177734375,-14.58740234375
252301.999261375,-0.7259521484375,0.1649169921875,0.296875,15.19775390625,-129.82177734375,-20.08056640625
252302.043142458,-0.6458740234375,0.1649169921875,0.296875,15.19775390625,-129.82177734375,-20.08056640625
252302.04476225,-0.6458740234375,0.194580078125,0.296875,15.19775390625,-129.82177734375,-20.08056640625
252302.044922041,-0.6458740234375,0.194580078125,-0.2655029296875,15.19775390625,-129.82177734375,-20.08056640625
252302.045011875,-0.6458740234375,0.194580078125,-0.2655029296875,83.31298828125,-129.82177734375,-20.08056640625
252302.074485541,-0.5831298828125,0.194580078125,-0.2655029296875,83.31298828125,-129.82177734375,-20.08056640625
252302.074550291,-0.5831298828125,0.0565185546875,-0.2655029296875,83.31298828125,-129.82177734375,-20.08056640625
252302.0746045,-0.5831298828125,0.0565185546875,-0.19140625,83.31298828125,-129.82177734375,-20.08056640625
252302.074656166,-0.5831298828125,0.0565185546875,-0.19140625,83.31298828125,-173.88916015625,-20.08056640625
252302.074707583,-0.5831298828125,0.0565185546875,-0.19140625,83.31298828125,-173.88916015625,-54.50439453125
252302.103066375,-0.4766845703125,0.0565185546875,-0.19140625,83.31298828125,-173.88916015625,-54.50439453125
252302.104836541,-0.4766845703125,0.5538330078125,-0.19140625,83.31298828125,-173.88916015625,-54.50439453125
252302.105008708,-0.4766845703125,0.5538330078125,-0.4033203125,83.31298828125,-173.88916015625,-54.50439453125
252302.105106041,-0.4766845703125,0.5538330078125,-0.4033203125,43.701171875,-173.88916015625,-54.50439453125
252302.133593833,-0.3482666015625,0.5538330078125,-0.4033203125,43.701171875,-173.88916015625,-54.50439453125
252302.133747458,-0.3482666015625,0.322265625,-0.4033203125,43.701171875,-173.88916015625,-54.50439453125
252302.134368666,-0.3482666015625,0.322265625,-0.6385498046875,43.701171875,-173.88916015625,-54.50439453125
252302.140866125,-0.3482666015625,0.322265625,-0.6385498046875,43.701171875,-191.5283203125,-54.50439453125
252302.149209916,-0.31298828125,0.322265625,-0.6385498046875,43.701171875,-191.5283203125,-54.50439453125
252302.149370125,-0.31298828125,0.13720703125,-0.6385498046875,43.701171875,-191.5283203125,-54.50439453125
252302.149455416,-0.31298828125,0.13720703125,-0.962646484375,43.701171875,-191.5283203125,-54.50439453125
252302.164555708,-0.31298828125,0.13720703125,-0.962646484375,43.701171875,-189.8193359375,-54.50439453125
252302.164663541,-0.31298828125,0.13720703125,-0.962646484375,43.701171875,-189.8193359375,-76.904296875
252302.193815,-0.212646484375,0.13720703125,-0.962646484375,43.701171875,-189.8193359375,-76.904296875
252302.197913458,-0.212646484375,0.9102783203125,-0.962646484375,43.701171875,-189.8193359375,-76.904296875
252302.1979835,-0.212646484375,0.9102783203125,-0.7861328125,43.701171875,-189.8193359375,-76.904296875
252302.19804625,-0.212646484375,0.9102783203125,-0.7861328125,16.357421875,-189.8193359375,-76.904296875
252302.224366625,-0.155517578125,0.9102783203125,-0.7861328125,16.357421875,-189.8193359375,-76.904296875
252302.224430875,-0.155517578125,0.4368896484375,-0.7861328125,16.357421875,-189.8193359375,-76.904296875
252302.224481083,-0.155517578125,0.4368896484375,-0.820556640625,16.357421875,-189.8193359375,-76.904296875
252302.224615083,-0.155517578125,0.4368896484375,-0.820556640625,16.357421875,-157.5927734375,-76.904296875
252302.224694625,-0.155517578125,0.4368896484375,-0.820556640625,16.357421875,-157.5927734375,-63.232421875
252302.284139541,-0.073974609375,0.4368896484375,-0.820556640625,16.357421875,-157.5927734375,-63.232421875
252302.28433225,-0.073974609375,0.0361328125,-0.820556640625,16.357421875,-157.5927734375,-63.232421875
252302.284439916,-0.073974609375,0.0361328125,-1.0550537109375,16.357421875,-157.5927734375,-63.232421875
252302.299283041,-0.073974609375,0.0361328125,-1.0550537109375,16.357421875,-157.71484375,-63.232421875
252302.299466625,-0.073974609375,0.0361328125,-1.0550537109375,16.357421875,-157.71484375,-90.6982421875
252302.358547125,0.3287353515625,0.0361328125,-1.0550537109375,16.357421875,-157.71484375,-90.6982421875
252302.3599275,0.3287353515625,0.54443359375,-1.0550537109375,16.357421875,-157.71484375,-90.6982421875
252302.36018475,0.3287353515625,0.54443359375,-0.936279296875,16.357421875,-157.71484375,-90.6982421875
252302.360283333,0.3287353515625,0.54443359375,-0.936279296875,73.66943359375,-157.71484375,-90.6982421875
252302.391943916,0.3470458984375,0.54443359375,-0.936279296875,73.66943359375,-157.71484375,-90.6982421875
252302.392016833,0.3470458984375,0.4212646484375,-0.936279296875,73.66943359375,-157.71484375,-90.6982421875
252302.392082,0.3470458984375,0.4212646484375,-1.1480712890625,73.66943359375,-157.71484375,-90.6982421875
252302.409286625,0.3470458984375,0.4212646484375,-1.1480712890625,73.66943359375,-150.87890625,-90.6982421875
252302.4240765,0.3470458984375,0.4212646484375,-1.1480712890625,73.66943359375,-150.87890625,-99.54833984375
252302.424261583,0.5474853515625,0.4212646484375,-1.1480712890625,73.66943359375,-150.87890625,-99.54833984375
252302.424311625,0.5474853515625,0.66064453125,-1.1480712890625,73.66943359375,-150.87890625,-99.54833984375
252302.434230083,0.5474853515625,0.66064453125,-1.1480712890625,73.66943359375,-138.85498046875,-99.54833984375
252302.441004291,0.5474853515625,0.66064453125,-1.1480712890625,73.66943359375,-138.85498046875,-86.60888671875
252302.464185791,0.6558837890625,0.66064453125,-1.1480712890625,73.66943359375,-138.85498046875,-86.60888671875
252302.464332791,0.6558837890625,0.845458984375,-1.1480712890625,73.66943359375,-138.85498046875,-86.60888671875
252302.465031208,0.6558837890625,0.845458984375,-0.8397216796875,73.66943359375,-138.85498046875,-86.60888671875
252302.465204416,0.6558837890625,0.845458984375,-0.8397216796875,-30.82275390625,-138.85498046875,-86.60888671875
252302.479313625,0.6588134765625,0.845458984375,-0.8397216796875,-30.82275390625,-138.85498046875,-86.60888671875
252302.479471875,0.6588134765625,0.869384765625,-0.8397216796875,-30.82275390625,-138.85498046875,-86.60888671875
252302.479526666,0.6588134765625,0.869384765625,-0.7470703125,-30.82275390625,-138.85498046875,-86.60888671875
252302.494120916,0.6588134765625,0.869384765625,-0.7470703125,-30.82275390625,-106.201171875,-86.60888671875
252302.49425525,0.6588134765625,0.869384765625,-0.7470703125,-30.82275390625,-106.201171875,-73.8525390625
252302.509060416,0.676513671875,0.869384765625,-0.7470703125,-30.82275390625,-106.201171875,-73.8525390625
252302.509232125,0.676513671875,0.6072998046875,-0.7470703125,-30.82275390625,-106.201171875,-73.8525390625
252302.509304458,0.676513671875,0.6072998046875,-0.762939453125,-30.82275390625,-106.201171875,-73.8525390625
252302.524268666,0.676513671875,0.6072998046875,-0.762939453125,-30.82275390625,-97.35107421875,-73.8525390625
252302.524328208,0.676513671875,0.6072998046875,-0.762939453125,-30.82275390625,-97.35107421875,-67.2607421875
252302.584457583,0.6827392578125,0.6072998046875,-0.762939453125,-30.82275390625,-97.35107421875,-67.2607421875
252302.584638583,0.6827392578125,0.5721435546875,-0.762939453125,-30.82275390625,-97.35107421875,-67.2607421875
252302.5885525,0.6827392578125,0.5721435546875,-0.6259765625,-30.82275390625,-97.35107421875,-67.2607421875
252302.59910425,0.6827392578125,0.5721435546875,-0.6259765625,-30.82275390625,-100.5859375,-67.2607421875
252302.608073583,0.6827392578125,0.5721435546875,-0.6259765625,-30.82275390625,-100.5859375,-69.580078125
252302.629015875,0.8968505859375,0.5721435546875,-0.6259765625,-30.82275390625,-100.5859375,-69.580078125
252302.629181791,0.8968505859375,0.5069580078125,-0.6259765625,-30.82275390625,-100.5859375,-69.580078125
252302.630132708,0.8968505859375,0.5069580078125,-0.5634765625,-30.82275390625,-100.5859375,-69.580078125
252302.630275958,0.8968505859375,0.5069580078125,-0.5634765625,21.240234375,-100.5859375,-69.580078125
252302.64425325,0.9700927734375,0.5069580078125,-0.5634765625,21.240234375,-100.5859375,-69.580078125
252302.644426166,0.9700927734375,0.536865234375,-0.5634765625,21.240234375,-100.5859375,-69.580078125
252302.645106583,0.9700927734375,0.536865234375,-0.536865234375,21.240234375,-100.5859375,-69.580078125
252302.659209875,0.9700927734375,0.536865234375,-0.536865234375,21.240234375,-102.35595703125,-69.580078125
252302.659364458,0.9700927734375,0.536865234375,-0.536865234375,21.240234375,-102.35595703125,-72.509765625
252302.674867833,0.9576416015625,0.536865234375,-0.536865234375,21.240234375,-102.35595703125,-72.509765625
252302.674947333,0.9576416015625,0.45947265625,-0.536865234375,21.240234375,-102.35595703125,-72.509765625
252302.675020666,0.9576416015625,0.45947265625,-0.5048828125,21.240234375,-102.35595703125,-72.509765625
252302.703140666,0.9576416015625,0.45947265625,-0.5048828125,21.240234375,-97.2900390625,-72.509765625
252302.704150958,0.9576416015625,0.45947265625,-0.5048828125,21.240234375,-97.2900390625,-64.39208984375
252302.704319125,0.90771484375,0.45947265625,-0.5048828125,21.240234375,-97.2900390625,-64.39208984375
252302.70525275,0.90771484375,0.4931640625,-0.5048828125,21.240234375,-97.2900390625,-64.39208984375
252302.725003333,0.90771484375,0.4931640625,-0.5048828125,21.240234375,-79.40673828125,-64.39208984375
252302.725082666,0.90771484375,0.4931640625,-0.5048828125,21.240234375,-79.40673828125,-53.64990234375
252302.73434175,0.9283447265625,0.4931640625,-0.5048828125,21.240234375,-79.40673828125,-53.64990234375
252302.734579791,0.9283447265625,0.455078125,-0.5048828125,21.240234375,-79.40673828125,-53.64990234375
252302.734695916,0.9283447265625,0.455078125,-0.4864501953125,21.240234375,-79.40673828125,-53.64990234375
252302.779186791,0.9283447265625,0.455078125,-0.4864501953125,21.240234375,-66.10107421875,-53.64990234375
252302.779386083,0.9283447265625,0.455078125,-0.4864501953125,21.240234375,-66.10107421875,-40.71044921875
252302.780043833,0.8863525390625,0.455078125,-0.4864501953125,21.240234375,-66.10107421875,-40.71044921875
252302.780241375,0.8863525390625,0.491943359375,-0.4864501953125,21.240234375,-66.10107421875,-40.71044921875
252302.808312708,0.8863525390625,0.491943359375,-0.4864501953125,21.240234375,-51.94091796875,-40.71044921875
252302.808398208,0.8863525390625,0.491943359375,-0.4864501953125,21.240234375,-51.94091796875,-26.4892578125
252302.80904375,0.8802490234375,0.491943359375,-0.4864501953125,21.240234375,-51.94091796875,-26.4892578125
252302.809224375,0.8802490234375,0.511474609375,-0.4864501953125,21.240234375,-51.94091796875,-26.4892578125
252302.809328208,0.8802490234375,0.511474609375,-0.395263671875,21.240234375,-51.94091796875,-26.4892578125
252302.825300333,0.8802490234375,0.511474609375,-0.395263671875,21.240234375,-26.30615234375,-26.4892578125
252302.825365708,0.8802490234375,0.511474609375,-0.395263671875,21.240234375,-26.30615234375,-12.3291015625
252302.8844435,0.8961181640625,0.511474609375,-0.395263671875,21.240234375,-26.30615234375,-12.3291015625
252302.884705208,0.8961181640625,0.37646484375,-0.395263671875,21.240234375,-26.30615234375,-12.3291015625
252302.884838666,0.8961181640625,0.37646484375,-0.4033203125,21.240234375,-26.30615234375,-12.3291015625
252302.899472291,0.8961181640625,0.37646484375,-0.4033203125,21.240234375,-16.6015625,-12.3291015625
252302.906991166,0.8961181640625,0.37646484375,-0.4033203125,21.240234375,-16.6015625,-8.4228515625
252302.929227875,0.8658447265625,0.37646484375,-0.4033203125,21.240234375,-16.6015625,-8.4228515625
252302.929406625,0.8658447265625,0.3800048828125,-0.4033203125,21.240234375,-16.6015625,-8.4228515625
252302.929947708,0.8658447265625,0.3800048828125,-0.3597412109375,21.240234375,-16.6015625,-8.4228515625
252302.930110958,0.8658447265625,0.3800048828125,-0.3597412109375,-10.31494140625,-16.6015625,-8.4228515625
252302.944364208,0.860595703125,0.3800048828125,-0.3597412109375,-10.31494140625,-16.6015625,-8.4228515625
252302.944618041,0.860595703125,0.307861328125,-0.3597412109375,-10.31494140625,-16.6015625,-8.4228515625
252302.944747875,0.860595703125,0.307861328125,-0.3211669921875,-10.31494140625,-16.6015625,-8.4228515625
252302.959261541,0.860595703125,0.307861328125,-0.3211669921875,-10.31494140625,-4.94384765625,-8.4228515625
252302.959431333,0.860595703125,0.307861328125,-0.3211669921875,-10.31494140625,-4.94384765625,-1.8310546875
252302.975167625,0.9306640625,0.307861328125,-0.3211669921875,-10.31494140625,-4.94384765625,-1.8310546875
252302.975268333,0.9306640625,0.3367919921875,-0.3211669921875,-10.31494140625,-4.94384765625,-1.8310546875
252302.975355166,0.9306640625,0.3367919921875,-0.334228515625,-10.31494140625,-4.94384765625,-1.8310546875
252302.991738625,0.9306640625,0.3367919921875,-0.334228515625,-10.31494140625,-2.13623046875,-1.8310546875
252302.991837916,0.9306640625,0.3367919921875,-0.334228515625,-10.31494140625,-2.13623046875,-0.54931640625
252303.008542208,0.9022216796875,0.3367919921875,-0.334228515625,-10.31494140625,-2.13623046875,-0.54931640625
252303.008833458,0.9022216796875,0.3314208984375,-0.334228515625,-10.31494140625,-2.13623046875,-0.54931640625
252303.008923125,0.9022216796875,0.3314208984375,-0.358154296875,-10.31494140625,-2.13623046875,-0.54931640625
252303.019406625,0.9022216796875,0.3314208984375,-0.358154296875,-10.31494140625,0.0,-0.54931640625
252303.0251875,0.9022216796875,0.3314208984375,-0.358154296875,-10.31494140625,0.0,-0.18310546875
252303.034382916,0.86962890625,0.3314208984375,-0.358154296875,-10.31494140625,0.0,-0.18310546875
252303.034630541,0.86962890625,0.3309326171875,-0.358154296875,-10.31494140625,0.0,-0.18310546875
252303.034758458,0.86962890625,0.3309326171875,-0.343505859375,-10.31494140625,0.0,-0.18310546875
252303.058158,0.86962890625,0.3309326171875,-0.343505859375,-10.31494140625,6.28662109375,-0.18310546875
252303.058348125,0.86962890625,0.3309326171875,-0.343505859375,-10.31494140625,6.28662109375,3.662109375
252303.0639965,0.8785400390625,0.3309326171875,-0.343505859375,-10.31494140625,6.28662109375,3.662109375
252303.064106166,0.8785400390625,0.370361328125,-0.343505859375,-10.31494140625,6.28662109375,3.662109375
252303.074829041,0.8785400390625,0.370361328125,-0.3648681640625,-10.31494140625,6.28662109375,3.662109375
NEW_REP,,,,,,
252303.0941395,0.8785400390625,0.370361328125,-0.3648681640625,-10.31494140625,17.333984375,3.662109375
252303.094224208,0.8785400390625,0.370361328125,-0.3648681640625,-10.31494140625,17.333984375,10.92529296875
252303.094998583,0.907470703125,0.370361328125,-0.3648681640625,-10.31494140625,17.333984375,10.92529296875
252303.124331833,0.907470703125,0.370361328125,-0.4208984375,-10.31494140625,17.333984375,10.92529296875
252303.124533625,0.907470703125,0.370361328125,-0.4208984375,-19.6533203125,17.333984375,10.92529296875
252303.124964916,0.907470703125,0.370361328125,-0.4208984375,-19.6533203125,28.4423828125,10.92529296875
252303.185056041,0.936279296875,0.370361328125,-0.4208984375,-19.6533203125,28.4423828125,10.92529296875
252303.185411666,0.936279296875,0.431884765625,-0.4208984375,-19.6533203125,28.4423828125,10.92529296875
252303.185586291,0.936279296875,0.431884765625,-0.3740234375,-19.6533203125,28.4423828125,10.92529296875
252303.19935675,0.936279296875,0.431884765625,-0.3740234375,-19.6533203125,28.4423828125,25.7568359375
252303.229104083,0.8953857421875,0.431884765625,-0.3740234375,-19.6533203125,28.4423828125,25.7568359375
252303.230618583,0.8953857421875,0.426025390625,-0.3740234375,-19.6533203125,28.4423828125,25.7568359375
252303.230850541,0.8953857421875,0.426025390625,-0.5032958984375,-19.6533203125,28.4423828125,25.7568359375
252303.235400375,0.8953857421875,0.426025390625,-0.5032958984375,-10.986328125,28.4423828125,25.7568359375
252303.244433666,0.8963623046875,0.426025390625,-0.5032958984375,-10.986328125,28.4423828125,25.7568359375
252303.24468775,0.8963623046875,0.494384765625,-0.5032958984375,-10.986328125,28.4423828125,25.7568359375
252303.244799458,0.8963623046875,0.494384765625,-0.511474609375,-10.986328125,28.4423828125,25.7568359375
252303.259365541,0.8963623046875,0.494384765625,-0.511474609375,-10.986328125,78.857421875,25.7568359375
252303.259561458,0.8963623046875,0.494384765625,-0.511474609375,-10.986328125,78.857421875,49.86572265625
252303.274477833,0.905517578125,0.494384765625,-0.511474609375,-10.986328125,78.857421875,49.86572265625
252303.279375416,0.905517578125,0.5078125,-0.511474609375,-10.986328125,78.857421875,49.86572265625
252303.279525083,0.905517578125,0.5078125,-0.6817626953125,-10.986328125,78.857421875,49.86572265625
252303.289384833,0.905517578125,0.5078125,-0.6817626953125,-10.986328125,96.5576171875,49.86572265625
252303.289603916,0.905517578125,0.5078125,-0.6817626953125,-10.986328125,96.5576171875,59.26513671875
252303.319369791,0.94091796875,0.5078125,-0.6817626953125,-10.986328125,96.5576171875,59.26513671875
252303.319665458,0.94091796875,0.5535888671875,-0.6817626953125,-10.986328125,96.5576171875,59.26513671875
252303.320180041,0.94091796875,0.5535888671875,-0.8564453125,-10.986328125,96.5576171875,59.26513671875
252303.320392,0.94091796875,0.5535888671875,-0.8564453125,-28.62548828125,96.5576171875,59.26513671875
252303.342411583,0.9412841796875,0.5535888671875,-0.8564453125,-28.62548828125,96.5576171875,59.26513671875
252303.342494875,0.9412841796875,0.6336669921875,-0.8564453125,-28.62548828125,96.5576171875,59.26513671875
252303.342568125,0.9412841796875,0.6336669921875,-0.776123046875,-28.62548828125,96.5576171875,59.26513671875
252303.349258833,0.9412841796875,0.6336669921875,-0.776123046875,-28.62548828125,131.591796875,59.26513671875
252303.349438166,0.9412841796875,0.6336669921875,-0.776123046875,-28.62548828125,131.591796875,81.0546875
252303.367877708,0.9066162109375,0.6336669921875,-0.776123046875,-28.62548828125,131.591796875,81.0546875
252303.3680845,0.9066162109375,0.759521484375,-0.776123046875,-28.62548828125,131.591796875,81.0546875
252303.368198208,0.9066162109375,0.759521484375,-1.037109375,-28.62548828125,131.591796875,81.0546875
252303.379191875,0.9066162109375,0.759521484375,-1.037109375,-28.62548828125,163.6962890625,81.0546875
252303.394707,0.9066162109375,0.759521484375,-1.037109375,-28.62548828125,163.6962890625,100.830078125
252303.394930166,0.860595703125,0.759521484375,-1.037109375,-28.62548828125,163.6962890625,100.830078125
252303.39500675,0.860595703125,0.7171630859375,-1.037109375,-28.62548828125,163.6962890625,100.830078125
252303.395256833,0.860595703125,0.7171630859375,-1.00537109375,-28.62548828125,163.6962890625,100.830078125
252303.40926225,0.860595703125,0.7171630859375,-1.00537109375,-28.62548828125,178.466796875,100.830078125
252303.409416708,0.860595703125,0.7171630859375,-1.00537109375,-28.62548828125,178.466796875,108.3984375
252303.424962875,0.720703125,0.7171630859375,-1.00537109375,-28.62548828125,178.466796875,108.3984375
252303.42504675,0.720703125,0.7352294921875,-1.00537109375,-28.62548828125,178.466796875,108.3984375
252303.48624325,0.720703125,0.7352294921875,-0.9630126953125,-28.62548828125,178.466796875,108.3984375
252303.491736916,0.720703125,0.7352294921875,-0.9630126953125,-28.62548828125,179.38232421875,108.3984375
252303.491836083,0.720703125,0.7352294921875,-0.9630126953125,-28.62548828125,179.38232421875,114.31884765625
252303.491973458,0.6258544921875,0.7352294921875,-0.9630126953125,-28.62548828125,179.38232421875,114.31884765625
252303.500228125,0.6258544921875,0.7352294921875,-1.0858154296875,-28.62548828125,179.38232421875,114.31884765625
252303.500580916,0.6258544921875,0.7352294921875,-1.0858154296875,-0.3662109375,179.38232421875,114.31884765625
252303.500748333,0.6258544921875,0.7352294921875,-1.0858154296875,-0.3662109375,185.48583984375,114.31884765625
252303.5292765,0.430419921875,0.7352294921875,-1.0858154296875,-0.3662109375,185.48583984375,114.31884765625
252303.530785333,0.430419921875,0.6474609375,-1.0858154296875,-0.3662109375,185.48583984375,114.31884765625
252303.537146583,0.430419921875,0.6474609375,-1.024658203125,-0.3662109375,185.48583984375,114.31884765625
252303.537308875,0.430419921875,0.6474609375,-1.024658203125,5.55419921875,185.48583984375,114.31884765625
252303.544465208,0.345458984375,0.6474609375,-1.024658203125,5.55419921875,185.48583984375,114.31884765625
252303.5446855,0.345458984375,0.5550537109375,-1.024658203125,5.55419921875,185.48583984375,114.31884765625
252303.544808583,0.345458984375,0.5550537109375,-0.9996337890625,5.55419921875,185.48583984375,114.31884765625
252303.559171333,0.345458984375,0.5550537109375,-0.9996337890625,5.55419921875,213.31787109375,114.31884765625
252303.559316333,0.345458984375,0.5550537109375,-0.9996337890625,5.55419921875,213.31787109375,117.67578125
252303.589811625,0.1746826171875,0.5550537109375,-0.9996337890625,5.55419921875,213.31787109375,117.67578125
252303.590065416,0.1746826171875,0.5089111328125,-0.9996337890625,5.55419921875,213.31787109375,117.67578125
252303.590198833,0.1746826171875,0.5089111328125,-0.82421875,5.55419921875,213.31787109375,117.67578125
252303.592375375,0.1746826171875,0.5089111328125,-0.82421875,12.14599609375,213.31787109375,117.67578125
252303.608309375,0.0537109375,0.5089111328125,-0.82421875,12.14599609375,213.31787109375,117.67578125
252303.608390833,0.0537109375,0.504638671875,-0.82421875,12.14599609375,213.31787109375,117.67578125
252303.608463625,0.0537109375,0.504638671875,-0.812744140625,12.14599609375,213.31787109375,117.67578125
252303.634190666,0.0537109375,0.504638671875,-0.812744140625,12.14599609375,217.59033203125,117.67578125
252303.63433975,0.0537109375,0.504638671875,-0.812744140625,12.14599609375,217.59033203125,110.3515625
252303.634889125,-0.0723876953125,0.504638671875,-0.812744140625,12.14599609375,217.59033203125,110.3515625
252303.649438458,-0.0723876953125,0.504638671875,-0.5775146484375,12.14599609375,217.59033203125,110.3515625
252303.649632916,-0.0723876953125,0.504638671875,-0.5775146484375,18.37158203125,217.59033203125,110.3515625
252303.649741458,-0.0723876953125,0.504638671875,-0.5775146484375,18.37158203125,214.84375,110.3515625
252303.678333416,-0.1474609375,0.504638671875,-0.5775146484375,18.37158203125,214.84375,110.3515625
252303.683191583,-0.1474609375,0.3768310546875,-0.5775146484375,18.37158203125,214.84375,110.3515625
252303.68327125,-0.1474609375,0.3768310546875,-0.5069580078125,18.37158203125,214.84375,110.3515625
252303.683347166,-0.1474609375,0.3768310546875,-0.5069580078125,21.6064453125,214.84375,110.3515625
252303.708295333,-0.1866455078125,0.3768310546875,-0.5069580078125,21.6064453125,214.84375,110.3515625
252303.708374916,-0.1866455078125,0.421142578125,-0.5069580078125,21.6064453125,214.84375,110.3515625
252303.708438041,-0.1866455078125,0.421142578125,-0.5184326171875,21.6064453125,214.84375,110.3515625
252303.709133416,-0.1866455078125,0.421142578125,-0.5184326171875,21.6064453125,195.49560546875,110.3515625
252303.709253208,-0.1866455078125,0.421142578125,-0.5184326171875,21.6064453125,195.49560546875,96.5576171875
252303.725045916,-0.332763671875,0.421142578125,-0.5184326171875,21.6064453125,195.49560546875,96.5576171875
252303.725114833,-0.332763671875,0.3734130859375,-0.5184326171875,21.6064453125,195.49560546875,96.5576171875
252303.725175625,-0.332763671875,0.3734130859375,-0.3831787109375,21.6064453125,195.49560546875,96.5576171875
252303.7844595,-0.332763671875,0.3734130859375,-0.3831787109375,21.6064453125,188.65966796875,96.5576171875
252303.78473125,-0.332763671875,0.3734130859375,-0.3831787109375,21.6064453125,188.65966796875,90.02685546875
252303.784841458,-0.43310546875,0.3734130859375,-0.3831787109375,21.6064453125,188.65966796875,90.02685546875
252303.813267916,-0.43310546875,0.3734130859375,-0.3707275390625,21.6064453125,188.65966796875,90.02685546875
252303.814703416,-0.43310546875,0.3734130859375,-0.3707275390625,6.7138671875,188.65966796875,90.02685546875
252303.814851,-0.43310546875,0.3734130859375,-0.3707275390625,6.7138671875,181.57958984375,90.02685546875
252303.8431815,-0.5589599609375,0.3734130859375,-0.3707275390625,6.7138671875,181.57958984375,90.02685546875
252303.844834916,-0.5589599609375,0.1256103515625,-0.3707275390625,6.7138671875,181.57958984375,90.02685546875
252303.844993958,-0.5589599609375,0.1256103515625,0.015380859375,6.7138671875,181.57958984375,90.02685546875
252303.860897833,-0.5589599609375,0.1256103515625,0.015380859375,6.7138671875,152.099609375,90.02685546875
252303.891252583,-0.5589599609375,0.1256103515625,0.015380859375,6.7138671875,152.099609375,60.85205078125
252303.891323333,-0.678955078125,0.1256103515625,0.015380859375,6.7138671875,152.099609375,60.85205078125
252303.891385958,-0.678955078125,0.14404296875,0.015380859375,6.7138671875,152.099609375,60.85205078125
252303.891445416,-0.678955078125,0.14404296875,0.2205810546875,6.7138671875,152.099609375,60.85205078125
252303.908305583,-0.678955078125,0.14404296875,0.2205810546875,6.7138671875,108.21533203125,60.85205078125
252303.908374833,-0.678955078125,0.14404296875,0.2205810546875,6.7138671875,108.21533203125,39.73388671875
252303.933953291,-0.7509765625,0.14404296875,0.2205810546875,6.7138671875,108.21533203125,39.73388671875
252303.9341135,-0.7509765625,0.227294921875,0.2205810546875,6.7138671875,108.21533203125,39.73388671875
252303.940994291,-0.7509765625,0.227294921875,0.5067138671875,6.7138671875,108.21533203125,39.73388671875
252303.94107,-0.7509765625,0.227294921875,0.5067138671875,-50.59814453125,108.21533203125,39.73388671875
252303.949300708,-0.7821044921875,0.227294921875,0.5067138671875,-50.59814453125,108.21533203125,39.73388671875
252303.949490791,-0.7821044921875,0.2305908203125,0.5067138671875,-50.59814453125,108.21533203125,39.73388671875
252303.949589875,-0.7821044921875,0.2305908203125,0.526611328125,-50.59814453125,108.21533203125,39.73388671875
252303.964410708,-0.7821044921875,0.2305908203125,0.526611328125,-50.59814453125,25.08544921875,39.73388671875
252303.964565916,-0.7821044921875,0.2305908203125,0.526611328125,-50.59814453125,25.08544921875,8.11767578125
252303.979389708,-0.765869140625,0.2305908203125,0.526611328125,-50.59814453125,25.08544921875,8.11767578125
252303.979518875,-0.765869140625,0.1136474609375,0.526611328125,-50.59814453125,25.08544921875,8.11767578125
252303.98050475,-0.765869140625,0.1136474609375,0.5364990234375,-50.59814453125,25.08544921875,8.11767578125
252303.995786916,-0.765869140625,0.1136474609375,0.5364990234375,-50.59814453125,-21.78955078125,8.11767578125
252303.995917666,-0.765869140625,0.1136474609375,0.5364990234375,-50.59814453125,-21.78955078125,-3.662109375
252304.010598916,-0.739501953125,0.1136474609375,0.5364990234375,-50.59814453125,-21.78955078125,-3.662109375
252304.010772166,-0.739501953125,0.1905517578125,0.5364990234375,-50.59814453125,-21.78955078125,-3.662109375
252304.010870791,-0.739501953125,0.1905517578125,0.50341796875,-50.59814453125,-21.78955078125,-3.662109375
252304.024489583,-0.739501953125,0.1905517578125,0.50341796875,-50.59814453125,-59.2041015625,-3.662109375
252304.024555,-0.739501953125,0.1905517578125,0.50341796875,-50.59814453125,-59.2041015625,-13.671875
252304.086175916,-0.718994140625,0.1905517578125,0.50341796875,-50.59814453125,-59.2041015625,-13.671875
252304.091029958,-0.718994140625,0.215087890625,0.50341796875,-50.59814453125,-59.2041015625,-13.671875
252304.091126958,-0.718994140625,0.215087890625,0.289794921875,-50.59814453125,-59.2041015625,-13.671875
252304.099314166,-0.718994140625,0.215087890625,0.289794921875,-50.59814453125,-99.54833984375,-13.671875
252304.099501708,-0.718994140625,0.215087890625,0.289794921875,-50.59814453125,-99.54833984375,-19.1650390625
252304.145334083,-0.6761474609375,0.215087890625,0.289794921875,-50.59814453125,-99.54833984375,-19.1650390625
252304.145698791,-0.6761474609375,0.1585693359375,0.289794921875,-50.59814453125,-99.54833984375,-19.1650390625
252304.145855083,-0.6761474609375,0.1585693359375,0.001708984375,-50.59814453125,-99.54833984375,-19.1650390625
252304.14608675,-0.6761474609375,0.1585693359375,0.001708984375,-3.96728515625,-99.54833984375,-19.1650390625
252304.175150625,-0.61865234375,0.1585693359375,0.001708984375,-3.96728515625,-99.54833984375,-19.1650390625
252304.175229333,-0.61865234375,0.25830078125,0.001708984375,-3.96728515625,-99.54833984375,-19.1650390625
252304.175301833,-0.61865234375,0.25830078125,-0.123046875,-3.96728515625,-99.54833984375,-19.1650390625
252304.175371958,-0.61865234375,0.25830078125,-0.123046875,-3.96728515625,-167.48046875,-19.1650390625
252304.175440708,-0.61865234375,0.25830078125,-0.123046875,-3.96728515625,-167.48046875,-41.015625
252304.2032365,-0.5999755859375,0.25830078125,-0.123046875,-3.96728515625,-167.48046875,-41.015625
252304.233907833,-0.5999755859375,0.1248779296875,-0.123046875,-3.96728515625,-167.48046875,-41.015625
252304.235390458,-0.5999755859375,0.1248779296875,-0.3365478515625,-3.96728515625,-167.48046875,-41.015625
252304.235668291,-0.5999755859375,0.1248779296875,-0.3365478515625,-10.31494140625,-167.48046875,-41.015625
252304.235782041,-0.5721435546875,0.1248779296875,-0.3365478515625,-10.31494140625,-167.48046875,-41.015625
252304.25900975,-0.5721435546875,0.1248779296875,-0.46630859375,-10.31494140625,-167.48046875,-41.015625
252304.259103666,-0.5721435546875,0.1248779296875,-0.46630859375,-35.58349609375,-167.48046875,-41.015625
252304.25918125,-0.5721435546875,0.1248779296875,-0.46630859375,-35.58349609375,-181.884765625,-41.015625
252304.266387708,-0.343017578125,0.1248779296875,-0.46630859375,-35.58349609375,-181.884765625,-41.015625
252304.266878583,-0.343017578125,0.275390625,-0.46630859375,-35.58349609375,-181.884765625,-41.015625
252304.267248958,-0.343017578125,0.275390625,-0.779296875,-35.58349609375,-181.884765625,-41.015625
252304.281690416,-0.343017578125,0.275390625,-0.779296875,-35.58349609375,-190.97900390625,-41.015625
252304.282007166,-0.343017578125,0.275390625,-0.779296875,-35.58349609375,-190.97900390625,-89.41650390625
252304.294605958,-0.27294921875,0.275390625,-0.779296875,-35.58349609375,-190.97900390625,-89.41650390625
252304.295017041,-0.27294921875,0.335693359375,-0.779296875,-35.58349609375,-190.97900390625,-89.41650390625
252304.295189166,-0.27294921875,0.335693359375,-0.9375,-35.58349609375,-190.97900390625,-89.41650390625
252304.309381625,-0.27294921875,0.335693359375,-0.9375,-35.58349609375,-187.1337890625,-89.41650390625
252304.30954,-0.27294921875,0.335693359375,-0.9375,-35.58349609375,-187.1337890625,-93.81103515625
252304.324555291,-0.2357177734375,0.335693359375,-0.9375,-35.58349609375,-187.1337890625,-93.81103515625
252304.324704583,-0.2357177734375,0.8367919921875,-0.9375,-35.58349609375,-187.1337890625,-93.81103515625
252304.324753666,-0.2357177734375,0.8367919921875,-0.8292236328125,-35.58349609375,-187.1337890625,-93.81103515625
252304.385141416,-0.2357177734375,0.8367919921875,-0.8292236328125,-35.58349609375,-165.771484375,-93.81103515625
252304.408265791,-0.2357177734375,0.8367919921875,-0.8292236328125,-35.58349609375,-165.771484375,-71.22802734375
252304.408339625,-0.1708984375,0.8367919921875,-0.8292236328125,-35.58349609375,-165.771484375,-71.22802734375
252304.408403333,-0.1708984375,0.8367919921875,-0.7469482421875,-35.58349609375,-165.771484375,-71.22802734375
252304.408464166,-0.1708984375,0.8367919921875,-0.7469482421875,108.45947265625,-165.771484375,-71.22802734375
252304.41507875,-0.1708984375,0.8367919921875,-0.7469482421875,108.45947265625,-165.771484375,-70.61767578125
252304.42934875,0.2340087890625,0.8367919921875,-0.7469482421875,108.45947265625,-165.771484375,-70.61767578125
252304.429555375,0.2340087890625,0.8583984375,-0.7469482421875,108.45947265625,-165.771484375,-70.61767578125
252304.429650875,0.2340087890625,0.8583984375,-0.788818359375,108.45947265625,-165.771484375,-70.61767578125
252304.444299875,0.2340087890625,0.8583984375,-0.788818359375,108.45947265625,-148.92578125,-70.61767578125
252304.444447416,0.2340087890625,0.8583984375,-0.788818359375,108.45947265625,-148.92578125,-77.7587890625
252304.460886208,0.280029296875,0.8583984375,-0.788818359375,108.45947265625,-148.92578125,-77.7587890625
252304.46104725,0.280029296875,0.555908203125,-0.788818359375,108.45947265625,-148.92578125,-77.7587890625
252304.461147125,0.280029296875,0.555908203125,-0.896240234375,108.45947265625,-148.92578125,-77.7587890625
252304.476513541,0.280029296875,0.555908203125,-0.896240234375,108.45947265625,-144.8974609375,-77.7587890625
252304.491522625,0.280029296875,0.555908203125,-0.896240234375,108.45947265625,-144.8974609375,-70.80078125
252304.491590166,0.3299560546875,0.555908203125,-0.896240234375,108.45947265625,-144.8974609375,-70.80078125
252304.4916545,0.3299560546875,0.3690185546875,-0.896240234375,108.45947265625,-144.8974609375,-70.80078125
252304.491715083,0.3299560546875,0.3690185546875,-0.9976806640625,108.45947265625,-144.8974609375,-70.80078125
252304.507981458,0.3299560546875,0.3690185546875,-0.9976806640625,108.45947265625,-146.1181640625,-70.80078125
252304.524945125,0.3299560546875,0.3690185546875,-0.9976806640625,108.45947265625,-146.1181640625,-85.5712890625
252304.525027041,0.4373779296875,0.3690185546875,-0.9976806640625,108.45947265625,-146.1181640625,-85.5712890625
252304.525095541,0.4373779296875,0.7630615234375,-0.9976806640625,108.45947265625,-146.1181640625,-85.5712890625
252304.525157625,0.4373779296875,0.7630615234375,-0.7696533203125,108.45947265625,-146.1181640625,-85.5712890625
252304.541419,0.4373779296875,0.7630615234375,-0.7696533203125,108.45947265625,-145.263671875,-85.5712890625
252304.541487041,0.4373779296875,0.7630615234375,-0.7696533203125,108.45947265625,-145.263671875,-83.06884765625
252304.550163625,0.6114501953125,0.7630615234375,-0.7696533203125,108.45947265625,-145.263671875,-83.06884765625
252304.550383708,0.6114501953125,0.5440673828125,-0.7696533203125,108.45947265625,-145.263671875,-83.06884765625
252304.550459375,0.6114501953125,0.5440673828125,-0.802734375,108.45947265625,-145.263671875,-83.06884765625
252304.564385791,0.6114501953125,0.5440673828125,-0.802734375,108.45947265625,-140.56396484375,-83.06884765625
252304.579363958,0.6114501953125,0.5440673828125,-0.802734375,108.45947265625,-140.56396484375,-79.16259765625
252304.609984375,0.6925048828125,0.5440673828125,-0.802734375,108.45947265625,-140.56396484375,-79.16259765625
252304.61026,0.6925048828125,0.4696044921875,-0.802734375,108.45947265625,-140.56396484375,-79.16259765625
252304.610425458,0.6925048828125,0.4696044921875,-0.90869140625,108.45947265625,-140.56396484375,-79.16259765625
252304.610610916,0.6925048828125,0.4696044921875,-0.90869140625,108.45947265625,-139.7705078125,-79.16259765625
252304.624778666,0.786376953125,0.4696044921875,-0.90869140625,108.45947265625,-139.7705078125,-79.16259765625
252304.624848333,0.786376953125,0.7705078125,-0.90869140625,108.45947265625,-139.7705078125,-79.16259765625
252304.624911416,0.786376953125,0.7705078125,-0.7125244140625,108.45947265625,-139.7705078125,-79.16259765625
252304.684343416,0.786376953125,0.7705078125,-0.7125244140625,108.45947265625,-131.7138671875,-79.16259765625
252304.708011041,0.786376953125,0.7705078125,-0.7125244140625,108.45947265625,-131.7138671875,-76.11083984375
252304.708083875,0.8211669921875,0.7705078125,-0.7125244140625,108.45947265625,-131.7138671875,-76.11083984375
252304.708158375,0.8211669921875,0.7705078125,-0.792236328125,108.45947265625,-131.7138671875,-76.11083984375
252304.70823525,0.8211669921875,0.7705078125,-0.792236328125,38.87939453125,-131.7138671875,-76.11083984375
252304.714214375,0.8211669921875,0.7705078125,-0.792236328125,38.87939453125,-131.7138671875,-67.2607421875
252304.744027125,0.8363037109375,0.7705078125,-0.792236328125,38.87939453125,-131.7138671875,-67.2607421875
252304.7591295,0.8363037109375,0.5621337890625,-0.792236328125,38.87939453125,-131.7138671875,-67.2607421875
252304.774690416,0.8363037109375,0.5621337890625,-0.6348876953125,38.87939453125,-131.7138671875,-67.2607421875
252304.779119375,0.8363037109375,0.5621337890625,-0.6348876953125,14.58740234375,-131.7138671875,-67.2607421875
252304.779242458,0.8236083984375,0.5621337890625,-0.6348876953125,14.58740234375,-131.7138671875,-67.2607421875
252304.779315416,0.8236083984375,0.5621337890625,-0.596435546875,14.58740234375,-131.7138671875,-67.2607421875
252304.789194083,0.8236083984375,0.5621337890625,-0.596435546875,14.58740234375,-83.80126953125,-67.2607421875
252304.807976333,0.8236083984375,0.5621337890625,-0.596435546875,14.58740234375,-83.80126953125,-47.119140625
252304.824862208,0.8651123046875,0.5621337890625,-0.596435546875,14.58740234375,-83.80126953125,-47.119140625
252304.824926833,0.8651123046875,0.5213623046875,-0.596435546875,14.58740234375,-83.80126953125,-47.119140625
252304.824985958,0.8651123046875,0.5213623046875,-0.4920654296875,14.58740234375,-83.80126953125,-47.119140625
252304.82504425,0.8651123046875,0.5213623046875,-0.4920654296875,15.44189453125,-83.80126953125,-47.119140625
252304.834417666,0.8690185546875,0.5213623046875,-0.4920654296875,15.44189453125,-83.80126953125,-47.119140625
252304.834639875,0.8690185546875,0.4619140625,-0.4920654296875,15.44189453125,-83.80126953125,-47.119140625
252304.834922541,0.8690185546875,0.4619140625,-0.4990234375,15.44189453125,-83.80126953125,-47.119140625
252304.849351625,0.8690185546875,0.4619140625,-0.4990234375,15.44189453125,-65.24658203125,-47.119140625
252304.866258416,0.8690185546875,0.4619140625,-0.4990234375,15.44189453125,-65.24658203125,-37.841796875
252304.866488333,0.8946533203125,0.4619140625,-0.4990234375,15.44189453125,-65.24658203125,-37.841796875
252304.866593833,0.8946533203125,0.4381103515625,-0.4990234375,15.44189453125,-65.24658203125,-37.841796875
252304.866664541,0.8946533203125,0.4381103515625,-0.4552001953125,15.44189453125,-65.24658203125,-37.841796875
252304.880020791,0.8946533203125,0.4381103515625,-0.4552001953125,15.44189453125,-56.70166015625,-37.841796875
252304.880184791,0.8946533203125,0.4381103515625,-0.4552001953125,15.44189453125,-56.70166015625,-34.24072265625
252304.908272625,0.8677978515625,0.4381103515625,-0.4552001953125,15.44189453125,-56.70166015625,-34.24072265625
252304.926283125,0.8677978515625,0.48193359375,-0.4552001953125,15.44189453125,-56.70166015625,-34.24072265625
252304.926498583,0.8677978515625,0.48193359375,-0.423828125,15.44189453125,-56.70166015625,-34.24072265625
252304.926612166,0.8677978515625,0.48193359375,-0.423828125,15.44189453125,-47.8515625,-34.24072265625
252304.985371791,0.8677978515625,0.48193359375,-0.423828125,15.44189453125,-47.8515625,-27.64892578125
252304.985818833,0.87646484375,0.48193359375,-0.423828125,15.44189453125,-47.8515625,-27.64892578125
252304.985991708,0.87646484375,0.435546875,-0.423828125,15.44189453125,-47.8515625,-27.64892578125
252304.986121125,0.87646484375,0.435546875,-0.4417724609375,15.44189453125,-47.8515625,-27.64892578125
252305.008432666,0.87646484375,0.435546875,-0.4417724609375,15.44189453125,-26.55029296875,-27.64892578125
252305.008514,0.87646484375,0.435546875,-0.4417724609375,15.44189453125,-26.55029296875,-13.3056640625
252305.028542916,0.875,0.435546875,-0.4417724609375,15.44189453125,-26.55029296875,-13.3056640625
252305.044611291,0.875,0.370361328125,-0.4417724609375,15.44189453125,-26.55029296875,-13.3056640625
252305.044785583,0.875,0.370361328125,-0.35888671875,15.44189453125,-26.55029296875,-13.3056640625
252305.045367208,0.875,0.370361328125,-0.35888671875,1.5869140625,-26.55029296875,-13.3056640625
252305.04554725,0.872314453125,0.370361328125,-0.35888671875,1.5869140625,-26.55029296875,-13.3056640625
252305.059304875,0.872314453125,0.370361328125,-0.3284912109375,1.5869140625,-26.55029296875,-13.3056640625
252305.059488541,0.872314453125,0.370361328125,-0.3284912109375,-11.8408203125,-26.55029296875,-13.3056640625
252305.060598083,0.872314453125,0.370361328125,-0.3284912109375,-11.8408203125,-2.9296875,-13.3056640625
252305.091606,0.8880615234375,0.370361328125,-0.3284912109375,-11.8408203125,-2.9296875,-13.3056640625
252305.091689625,0.8880615234375,0.3983154296875,-0.3284912109375,-11.8408203125,-2.9296875,-13.3056640625
252305.091763416,0.8880615234375,0.3983154296875,-0.233642578125,-11.8408203125,-2.9296875,-13.3056640625
252305.091842041,0.8880615234375,0.3983154296875,-0.233642578125,-2.38037109375,-2.9296875,-13.3056640625
252305.108636125,0.91064453125,0.3983154296875,-0.233642578125,-2.38037109375,-2.9296875,-13.3056640625
252305.108824916,0.91064453125,0.3602294921875,-0.233642578125,-2.38037109375,-2.9296875,-13.3056640625
252305.10890725,0.91064453125,0.3602294921875,-0.234619140625,-2.38037109375,-2.9296875,-13.3056640625
252305.12367825,0.91064453125,0.3602294921875,-0.234619140625,-2.38037109375,0.1220703125,-13.3056640625
252305.134735083,0.91064453125,0.3602294921875,-0.234619140625,-2.38037109375,0.1220703125,0.9765625
252305.141176791,0.9163818359375,0.3602294921875,-0.234619140625,-2.38037109375,0.1220703125,0.9765625
252305.141258875,0.9163818359375,0.2706298828125,-0.234619140625,-2.38037109375,0.1220703125,0.9765625
252305.141494416,0.9163818359375,0.2706298828125,-0.2835693359375,-2.38037109375,0.1220703125,0.9765625
252305.149338541,0.9163818359375,0.2706298828125,-0.2835693359375,-2.38037109375,0.8544921875,0.9765625
252305.164325416,0.9163818359375,0.2706298828125,-0.2835693359375,-2.38037109375,0.8544921875,1.77001953125
252305.19426175,0.896240234375,0.2706298828125,-0.2835693359375,-2.38037109375,0.8544921875,1.77001953125
252305.194463375,0.896240234375,0.323486328125,-0.2835693359375,-2.38037109375,0.8544921875,1.77001953125
252305.195318583,0.896240234375,0.323486328125,-0.2515869140625,-2.38037109375,0.8544921875,1.77001953125
252305.195489791,0.896240234375,0.323486328125,-0.2515869140625,-2.38037109375,-1.64794921875,1.77001953125
252305.209439125,0.888427734375,0.323486328125,-0.2515869140625,-2.38037109375,-1.64794921875,1.77001953125
252305.209638458,0.888427734375,0.3526611328125,-0.2515869140625,-2.38037109375,-1.64794921875,1.77001953125
252305.2097445,0.888427734375,0.3526611328125,-0.20166015625,-2.38037109375,-1.64794921875,1.77001953125
NEW_REP,,,,,,
252305.241213541,0.888427734375,0.3526611328125,-0.20166015625,-2.38037109375,-0.732421875,1.77001953125
252305.241275958,0.888427734375,0.3526611328125,-0.20166015625,-2.38037109375,-0.732421875,2.01416015625
252305.284195875,0.9041748046875,0.3526611328125,-0.20166015625,-2.38037109375,-0.732421875,2.01416015625
252305.299308208,0.9041748046875,0.268310546875,-0.20166015625,-2.38037109375,-0.732421875,2.01416015625
252305.299410375,0.9041748046875,0.268310546875,-0.371826171875,-2.38037109375,-0.732421875,2.01416015625
252305.299441416,0.9041748046875,0.268310546875,-0.371826171875,-2.38037109375,9.09423828125,2.01416015625
252305.300154916,0.9041748046875,0.268310546875,-0.371826171875,-2.38037109375,9.09423828125,4.21142578125
252305.329193583,0.8369140625,0.268310546875,-0.371826171875,-2.38037109375,9.09423828125,4.21142578125
252305.330804875,0.8369140625,0.5103759765625,-0.371826171875,-2.38037109375,9.09423828125,4.21142578125
252305.3308965,0.8369140625,0.5103759765625,-0.537353515625,-2.38037109375,9.09423828125,4.21142578125
252305.330930458,0.8369140625,0.5103759765625,-0.537353515625,-17.27294921875,9.09423828125,4.21142578125
252305.356732458,0.846923828125,0.5103759765625,-0.537353515625,-17.27294921875,9.09423828125,4.21142578125
252305.356768666,0.846923828125,0.450927734375,-0.537353515625,-17.27294921875,9.09423828125,4.21142578125
252305.356799,0.846923828125,0.450927734375,-0.6585693359375,-17.27294921875,9.09423828125,4.21142578125
252305.359074916,0.846923828125,0.450927734375,-0.6585693359375,-17.27294921875,55.5419921875,4.21142578125
252305.359109291,0.846923828125,0.450927734375,-0.6585693359375,-17.27294921875,55.5419921875,29.78515625
252305.373962291,0.9263916015625,0.450927734375,-0.6585693359375,-17.27294921875,55.5419921875,29.78515625
252305.390118666,0.9263916015625,0.520751953125,-0.6585693359375,-17.27294921875,55.5419921875,29.78515625
252305.390179625,0.9263916015625,0.520751953125,-0.76513671875,-17.27294921875,55.5419921875,29.78515625
252305.390216833,0.9263916015625,0.520751953125,-0.76513671875,-17.27294921875,82.58056640625,29.78515625
252305.390286791,0.9263916015625,0.520751953125,-0.76513671875,-17.27294921875,82.58056640625,44.12841796875
252305.406548041,0.89599609375,0.520751953125,-0.76513671875,-17.27294921875,82.58056640625,44.12841796875
252305.423405208,0.89599609375,0.6263427734375,-0.76513671875,-17.27294921875,82.58056640625,44.12841796875
252305.4234495,0.89599609375,0.6263427734375,-0.8154296875,-17.27294921875,82.58056640625,44.12841796875
252305.423489041,0.89599609375,0.6263427734375,-0.8154296875,-17.27294921875,104.98046875,44.12841796875
252305.423531291,0.89599609375,0.6263427734375,-0.8154296875,-17.27294921875,104.98046875,55.84716796875
252305.433994666,0.8836669921875,0.6263427734375,-0.8154296875,-17.27294921875,104.98046875,55.84716796875
252305.44025925,0.8836669921875,0.7166748046875,-0.8154296875,-17.27294921875,104.98046875,55.84716796875
252305.4403385,0.8836669921875,0.7166748046875,-0.9068603515625,-17.27294921875,104.98046875,55.84716796875
252305.449115041,0.8836669921875,0.7166748046875,-0.9068603515625,-17.27294921875,135.80322265625,55.84716796875
252305.449202583,0.8836669921875,0.7166748046875,-0.9068603515625,-17.27294921875,135.80322265625,69.64111328125
252305.464555125,0.88330078125,0.7166748046875,-0.9068603515625,-17.27294921875,135.80322265625,69.64111328125
252305.464706541,0.88330078125,0.708251953125,-0.9068603515625,-17.27294921875,135.80322265625,69.64111328125
252305.464753833,0.88330078125,0.708251953125,-0.97314453125,-17.27294921875,135.80322265625,69.64111328125
252305.493403166,0.88330078125,0.708251953125,-0.97314453125,-17.27294921875,150.5126953125,69.64111328125
252305.509420541,0.88330078125,0.708251953125,-0.97314453125,-17.27294921875,150.5126953125,76.72119140625
252305.509601375,0.864990234375,0.708251953125,-0.97314453125,-17.27294921875,150.5126953125,76.72119140625
252305.509697541,0.864990234375,0.708251953125,-1.05419921875,-17.27294921875,150.5126953125,76.72119140625
252305.510239291,0.864990234375,0.708251953125,-1.05419921875,-13.36669921875,150.5126953125,76.72119140625
252305.525416,0.864990234375,0.708251953125,-1.05419921875,-13.36669921875,150.5126953125,87.95166015625
252305.584435541,0.7821044921875,0.708251953125,-1.05419921875,-13.36669921875,150.5126953125,87.95166015625
252305.599873666,0.7821044921875,0.738525390625,-1.05419921875,-13.36669921875,150.5126953125,87.95166015625
252305.608879041,0.7821044921875,0.738525390625,-1.0501708984375,-13.36669921875,150.5126953125,87.95166015625
252305.60902225,0.7821044921875,0.738525390625,-1.0501708984375,-13.36669921875,184.50927734375,87.95166015625
252305.609125583,0.7821044921875,0.738525390625,-1.0501708984375,-13.36669921875,184.50927734375,103.759765625
252305.629395375,0.6304931640625,0.738525390625,-1.0501708984375,-13.36669921875,184.50927734375,103.759765625
252305.629592083,0.6304931640625,0.67626953125,-1.0501708984375,-13.36669921875,184.50927734375,103.759765625
252305.630186125,0.6304931640625,0.67626953125,-1.107666015625,-13.36669921875,184.50927734375,103.759765625
252305.63039,0.6304931640625,0.67626953125,-1.107666015625,-0.3662109375,184.50927734375,103.759765625
252305.644408833,0.5390625,0.67626953125,-1.107666015625,-0.3662109375,184.50927734375,103.759765625
252305.644656333,0.5390625,0.6573486328125,-1.107666015625,-0.3662109375,184.50927734375,103.759765625
252305.644798333,0.5390625,0.6573486328125,-1.056884765625,-0.3662109375,184.50927734375,103.759765625
252305.660156375,0.5390625,0.6573486328125,-1.056884765625,-0.3662109375,227.4169921875,103.759765625
252305.660361625,0.5390625,0.6573486328125,-1.056884765625,-0.3662109375,227.4169921875,111.6943359375
252305.675744583,0.38330078125,0.6573486328125,-1.056884765625,-0.3662109375,227.4169921875,111.6943359375
252305.67592525,0.38330078125,0.532958984375,-1.056884765625,-0.3662109375,227.4169921875,111.6943359375
252305.679688958,0.38330078125,0.532958984375,-0.9886474609375,-0.3662109375,227.4169921875,111.6943359375
252305.692335375,0.38330078125,0.532958984375,-0.9886474609375,-0.3662109375,232.177734375,111.6943359375
252305.692430083,0.38330078125,0.532958984375,-0.9886474609375,-0.3662109375,232.177734375,113.6474609375
252305.70899875,0.236083984375,0.532958984375,-0.9886474609375,-0.3662109375,232.177734375,113.6474609375
252305.709096375,0.236083984375,0.398681640625,-0.9886474609375,-0.3662109375,232.177734375,113.6474609375
252305.709182791,0.236083984375,0.398681640625,-0.8031005859375,-0.3662109375,232.177734375,113.6474609375
252305.719575916,0.236083984375,0.398681640625,-0.8031005859375,-0.3662109375,231.3232421875,113.6474609375
252305.725561166,0.236083984375,0.398681640625,-0.8031005859375,-0.3662109375,231.3232421875,108.09326171875
252305.73447,0.1019287109375,0.398681640625,-0.8031005859375,-0.3662109375,231.3232421875,108.09326171875
252305.734714791,0.1019287109375,0.4742431640625,-0.8031005859375,-0.3662109375,231.3232421875,108.09326171875
252305.734845916,0.1019287109375,0.4742431640625,-0.6484375,-0.3662109375,231.3232421875,108.09326171875
252305.749538333,0.1019287109375,0.4742431640625,-0.6484375,-0.3662109375,223.6328125,108.09326171875
252305.74971425,0.1019287109375,0.4742431640625,-0.6484375,-0.3662109375,223.6328125,100.830078125
252305.76470375,-0.0003662109375,0.4742431640625,-0.6484375,-0.3662109375,223.6328125,100.830078125
252305.764949041,-0.0003662109375,0.4493408203125,-0.6484375,-0.3662109375,223.6328125,100.830078125
252305.765037708,-0.0003662109375,0.4493408203125,-0.6845703125,-0.3662109375,223.6328125,100.830078125
252305.780567416,-0.0003662109375,0.4493408203125,-0.6845703125,-0.3662109375,216.6748046875,100.830078125
252305.780758791,-0.0003662109375,0.4493408203125,-0.6845703125,-0.3662109375,216.6748046875,97.2900390625
252305.794404916,-0.12060546875,0.4493408203125,-0.6845703125,-0.3662109375,216.6748046875,97.2900390625
252305.794611041,-0.12060546875,0.43798828125,-0.6845703125,-0.3662109375,216.6748046875,97.2900390625
252305.795179875,-0.12060546875,0.43798828125,-0.6175537109375,-0.3662109375,216.6748046875,97.2900390625
252305.809334208,-0.12060546875,0.43798828125,-0.6175537109375,-0.3662109375,206.72607421875,97.2900390625
252305.809525125,-0.12060546875,0.43798828125,-0.6175537109375,-0.3662109375,206.72607421875,94.23828125
252305.825635083,-0.230224609375,0.43798828125,-0.6175537109375,-0.3662109375,206.72607421875,94.23828125
252305.825728083,-0.230224609375,0.393798828125,-0.6175537109375,-0.3662109375,206.72607421875,94.23828125
252305.825813541,-0.230224609375,0.393798828125,-0.5140380859375,-0.3662109375,206.72607421875,94.23828125
252305.88468275,-0.230224609375,0.393798828125,-0.5140380859375,-0.3662109375,199.8291015625,94.23828125
252305.88491225,-0.230224609375,0.393798828125,-0.5140380859375,-0.3662109375,199.8291015625,91.61376953125
252305.914516791,-0.293701171875,0.393798828125,-0.5140380859375,-0.3662109375,199.8291015625,91.61376953125
252305.914685583,-0.293701171875,0.393798828125,-0.4061279296875,-0.3662109375,199.8291015625,91.61376953125
252305.915022291,-0.293701171875,0.393798828125,-0.4061279296875,-2.62451171875,199.8291015625,91.61376953125
252305.915158791,-0.293701171875,0.393798828125,-0.4061279296875,-2.62451171875,195.80078125,91.61376953125
252305.94443875,-0.4962158203125,0.393798828125,-0.4061279296875,-2.62451171875,195.80078125,91.61376953125
252305.94465075,-0.4962158203125,0.1484375,-0.4061279296875,-2.62451171875,195.80078125,91.61376953125
252305.945201458,-0.4962158203125,0.1484375,0.0223388671875,-2.62451171875,195.80078125,91.61376953125
252305.945375208,-0.4962158203125,0.1484375,0.0223388671875,-2.62451171875,173.64501953125,91.61376953125
252305.989395375,-0.536376953125,0.1484375,0.0223388671875,-2.62451171875,173.64501953125,91.61376953125
252305.989601708,-0.536376953125,0.1739501953125,0.0223388671875,-2.62451171875,173.64501953125,91.61376953125
252305.990143,-0.536376953125,0.1739501953125,0.2236328125,-2.62451171875,173.64501953125,91.61376953125
252305.99031125,-0.536376953125,0.1739501953125,0.2236328125,-2.62451171875,130.126953125,91.61376953125
252306.008542,-0.6580810546875,0.1739501953125,0.2236328125,-2.62451171875,130.126953125,91.61376953125
252306.008624916,-0.6580810546875,0.036865234375,0.2236328125,-2.62451171875,130.126953125,91.61376953125
252306.019403916,-0.6580810546875,0.036865234375,0.3448486328125,-2.62451171875,130.126953125,91.61376953125
252306.025328625,-0.6580810546875,0.036865234375,0.3448486328125,10.19287109375,130.126953125,91.61376953125
252306.025524791,-0.6580810546875,0.036865234375,0.3448486328125,10.19287109375,106.87255859375,91.61376953125
252306.034320791,-0.7532958984375,0.036865234375,0.3448486328125,10.19287109375,106.87255859375,91.61376953125
252306.034560291,-0.7532958984375,0.0430908203125,0.3448486328125,10.19287109375,106.87255859375,91.61376953125
252306.034659208,-0.7532958984375,0.0430908203125,0.490478515625,10.19287109375,106.87255859375,91.61376953125
252306.064077583,-0.7532958984375,0.0430908203125,0.490478515625,10.19287109375,52.978515625,91.61376953125
252306.091807291,-0.7532958984375,0.0430908203125,0.490478515625,10.19287109375,52.978515625,27.03857421875
252306.0918895,-0.8182373046875,0.0430908203125,0.490478515625,10.19287109375,52.978515625,27.03857421875
252306.091969958,-0.8182373046875,0.2161865234375,0.490478515625,10.19287109375,52.978515625,27.03857421875
252306.092040458,-0.8182373046875,0.2161865234375,0.4886474609375,10.19287109375,52.978515625,27.03857421875
252306.109005416,-0.7830810546875,0.2161865234375,0.4886474609375,10.19287109375,52.978515625,27.03857421875
252306.110681625,-0.7830810546875,0.216796875,0.4886474609375,10.19287109375,52.978515625,27.03857421875
252306.110860291,-0.7830810546875,0.216796875,0.5291748046875,10.19287109375,52.978515625,27.03857421875
252306.110971,-0.7830810546875,0.216796875,0.5291748046875,2.197265625,52.978515625,27.03857421875
252306.124963708,-0.760986328125,0.216796875,0.5291748046875,2.197265625,52.978515625,27.03857421875
252306.125040583,-0.760986328125,0.1689453125,0.5291748046875,2.197265625,52.978515625,27.03857421875
252306.125127375,-0.760986328125,0.1689453125,0.4473876953125,2.197265625,52.978515625,27.03857421875
252306.215136416,-0.760986328125,0.1689453125,0.4473876953125,2.197265625,-47.54638671875,27.03857421875
252306.215628583,-0.760986328125,0.1689453125,0.4473876953125,2.197265625,-47.54638671875,-11.474609375
252306.215841125,-0.7386474609375,0.1689453125,0.4473876953125,2.197265625,-47.54638671875,-11.474609375
252306.244122833,-0.7386474609375,0.1689453125,0.3182373046875,2.197265625,-47.54638671875,-11.474609375
252306.244287208,-0.7386474609375,0.1689453125,0.3182373046875,37.4755859375,-47.54638671875,-11.474609375
252306.244984416,-0.7386474609375,0.1689453125,0.3182373046875,37.4755859375,-81.60400390625,-11.474609375
252306.259408166,-0.592529296875,0.1689453125,0.3182373046875,37.4755859375,-81.60400390625,-11.474609375
252306.259626583,-0.592529296875,0.176513671875,0.3182373046875,37.4755859375,-81.60400390625,-11.474609375
252306.259724083,-0.592529296875,0.176513671875,-0.084716796875,37.4755859375,-81.60400390625,-11.474609375
252306.275055041,-0.592529296875,0.176513671875,-0.084716796875,37.4755859375,-160.2783203125,-11.474609375
252306.275151583,-0.592529296875,0.176513671875,-0.084716796875,37.4755859375,-160.2783203125,-66.10107421875
252306.304282666,-0.546142578125,0.176513671875,-0.084716796875,37.4755859375,-160.2783203125,-66.10107421875
252306.305727291,-0.546142578125,0.2388916015625,-0.084716796875,37.4755859375,-160.2783203125,-66.10107421875
252306.306004166,-0.546142578125,0.2388916015625,-0.0428466796875,37.4755859375,-160.2783203125,-66.10107421875
252306.30614075,-0.546142578125,0.2388916015625,-0.0428466796875,3.2958984375,-160.2783203125,-66.10107421875
252306.325598916,-0.391845703125,0.2388916015625,-0.0428466796875,3.2958984375,-160.2783203125,-66.10107421875
252306.325679708,-0.391845703125,0.35205078125,-0.0428466796875,3.2958984375,-160.2783203125,-66.10107421875
252306.325753125,-0.391845703125,0.35205078125,-0.2366943359375,3.2958984375,-160.2783203125,-66.10107421875
252306.334491291,-0.391845703125,0.35205078125,-0.2366943359375,3.2958984375,-192.2607421875,-66.10107421875
252306.334693708,-0.391845703125,0.35205078125,-0.2366943359375,3.2958984375,-192.2607421875,-98.388671875
252306.349671875,-0.37744140625,0.35205078125,-0.2366943359375,3.2958984375,-192.2607421875,-98.388671875
252306.349877041,-0.37744140625,0.2764892578125,-0.2366943359375,3.2958984375,-192.2607421875,-98.388671875
252306.349990083,-0.37744140625,0.2764892578125,-0.5904541015625,3.2958984375,-192.2607421875,-98.388671875
252306.364587416,-0.37744140625,0.2764892578125,-0.5904541015625,3.2958984375,-194.27490234375,-98.388671875
252306.364767708,-0.37744140625,0.2764892578125,-0.5904541015625,3.2958984375,-194.27490234375,-116.3330078125
252306.3795325,-0.2242431640625,0.2764892578125,-0.5904541015625,3.2958984375,-194.27490234375,-116.3330078125
252306.379736416,-0.2242431640625,0.49072265625,-0.5904541015625,3.2958984375,-194.27490234375,-116.3330078125
252306.379844333,-0.2242431640625,0.49072265625,-0.452392578125,3.2958984375,-194.27490234375,-116.3330078125
252306.394809125,-0.2242431640625,0.49072265625,-0.452392578125,3.2958984375,-190.91796875,-116.3330078125
252306.394956791,-0.2242431640625,0.49072265625,-0.452392578125,3.2958984375,-190.91796875,-132.38525390625
252306.423368625,-0.013427734375,0.49072265625,-0.452392578125,3.2958984375,-190.91796875,-132.38525390625
252306.424473375,-0.013427734375,0.64306640625,-0.452392578125,3.2958984375,-190.91796875,-132.38525390625
252306.424664708,-0.013427734375,0.64306640625,-0.7801513671875,3.2958984375,-190.91796875,-132.38525390625
252306.425269791,-0.013427734375,0.64306640625,-0.7801513671875,62.8662109375,-190.91796875,-132.38525390625
252306.454505583,0.071044921875,0.64306640625,-0.7801513671875,62.8662109375,-190.91796875,-132.38525390625
252306.454657583,0.071044921875,0.3963623046875,-0.7801513671875,62.8662109375,-190.91796875,-132.38525390625
252306.455809791,0.071044921875,0.3963623046875,-1.114501953125,62.8662109375,-190.91796875,-132.38525390625
252306.484513833,0.071044921875,0.3963623046875,-1.114501953125,62.8662109375,-185.546875,-132.38525390625
252306.499494416,0.071044921875,0.3963623046875,-1.114501953125,62.8662109375,-185.546875,-149.71923828125
252306.499712416,0.3011474609375,0.3963623046875,-1.114501953125,62.8662109375,-185.546875,-149.71923828125
252306.499837041,0.3011474609375,1.2471923828125,-1.114501953125,62.8662109375,-185.546875,-149.71923828125
252306.500472541,0.3011474609375,1.2471923828125,-0.7449951171875,62.8662109375,-185.546875,-149.71923828125
252306.529095791,0.3011474609375,1.2471923828125,-0.7449951171875,62.8662109375,-185.546875,-109.43603515625
