Timestamp,Accel_X,Accel_Y,Accel_Z,Gyro_X,Gyro_Y,Gyro_Z
20817.190648541,-0.1798095703125,0.6444091796875,0.6124267578125,5.37109375,4.57763671875,4.39453125
20817.250610125,-0.1485595703125,0.6444091796875,0.6124267578125,5.37109375,4.57763671875,4.39453125
20817.251975833,-0.078369140625,0.6444091796875,0.6124267578125,5.37109375,4.57763671875,4.39453125
20817.280020625,-0.078369140625,0.4364013671875,0.6124267578125,5.37109375,4.57763671875,4.39453125
20817.28011925,-0.034912109375,0.4364013671875,0.6124267578125,5.37109375,4.57763671875,4.39453125
20817.280298541,-0.034912109375,0.4393310546875,0.6124267578125,5.37109375,4.57763671875,4.39453125
20817.3102315,0.0496826171875,0.4393310546875,0.6124267578125,5.37109375,4.57763671875,4.39453125
20817.310944541,0.0496826171875,0.4752197265625,0.6124267578125,5.37109375,4.57763671875,4.39453125
20817.311146916,0.0496826171875,0.4752197265625,-0.5941162109375,5.37109375,4.57763671875,4.39453125
20817.327618916,0.1483154296875,0.4752197265625,-0.5941162109375,5.37109375,4.57763671875,4.39453125
20817.327654833,0.1483154296875,0.5384521484375,-0.5941162109375,5.37109375,4.57763671875,4.39453125
20817.327684583,0.1483154296875,0.5384521484375,-0.778564453125,5.37109375,4.57763671875,4.39453125
20817.355825041,0.2623291015625,0.5384521484375,-0.778564453125,5.37109375,4.57763671875,4.39453125
20817.355990333,0.2623291015625,0.5743408203125,-0.778564453125,5.37109375,4.57763671875,4.39453125
20817.385185166,0.268310546875,0.5743408203125,-0.778564453125,5.37109375,4.57763671875,4.39453125
20817.385415291,0.268310546875,0.474609375,-0.778564453125,5.37109375,4.57763671875,4.39453125
20817.385490791,0.268310546875,0.474609375,-0.67333984375,5.37109375,4.57763671875,4.39453125
20817.400645625,0.3565673828125,0.474609375,-0.67333984375,5.37109375,4.57763671875,4.39453125
20817.400774625,0.3565673828125,0.4990234375,-0.67333984375,5.37109375,4.57763671875,4.39453125
20817.430666083,0.3565673828125,0.4990234375,-0.67333984375,46.93603515625,4.57763671875,4.39453125
20817.430936,0.3565673828125,0.4990234375,-0.67333984375,46.93603515625,-169.49462890625,4.39453125
20817.4310265,0.616455078125,0.4990234375,-0.67333984375,46.93603515625,-169.49462890625,4.39453125
20817.461078625,0.616455078125,0.4990234375,-0.9044189453125,46.93603515625,-169.49462890625,4.39453125
20817.461114291,0.616455078125,0.4990234375,-0.9044189453125,40.0390625,-169.49462890625,4.39453125
20817.461145166,0.616455078125,0.4990234375,-0.9044189453125,40.0390625,-169.49462890625,-57.92236328125
20817.503999375,0.722900390625,0.4990234375,-0.9044189453125,40.0390625,-169.49462890625,-57.92236328125
20817.505694125,0.722900390625,0.6373291015625,-0.9044189453125,40.0390625,-169.49462890625,-57.92236328125
20817.506006666,0.722900390625,0.6373291015625,-0.734130859375,40.0390625,-169.49462890625,-57.92236328125
20817.506165791,0.722900390625,0.6373291015625,-0.734130859375,26.611328125,-169.49462890625,-57.92236328125
20817.527604958,0.89892578125,0.6373291015625,-0.734130859375,26.611328125,-169.49462890625,-57.92236328125
20817.527641791,0.89892578125,0.5872802734375,-0.734130859375,26.611328125,-169.49462890625,-57.92236328125
20817.52767225,0.89892578125,0.5872802734375,-0.8890380859375,26.611328125,-169.49462890625,-57.92236328125
20817.579047666,0.89892578125,0.5872802734375,-0.8890380859375,26.611328125,-166.9921875,-57.92236328125
20817.594623625,0.89892578125,0.5872802734375,-0.8890380859375,26.611328125,-166.9921875,-58.04443359375
20817.594657333,0.9005126953125,0.5872802734375,-0.8890380859375,26.611328125,-166.9921875,-58.04443359375
20817.594715291,0.9005126953125,0.5599365234375,-0.8890380859375,26.611328125,-166.9921875,-58.04443359375
20817.595880291,0.9005126953125,0.5599365234375,-0.8890380859375,26.611328125,-146.17919921875,-58.04443359375
20817.627745916,0.886962890625,0.5599365234375,-0.8890380859375,26.611328125,-146.17919921875,-58.04443359375
20817.627780291,0.886962890625,0.5906982421875,-0.8890380859375,26.611328125,-146.17919921875,-58.04443359375
20817.627809166,0.886962890625,0.5906982421875,-0.5501708984375,26.611328125,-146.17919921875,-58.04443359375
20817.627839083,0.886962890625,0.5906982421875,-0.5501708984375,26.611328125,-127.685546875,-58.04443359375
20817.669901041,0.886962890625,0.5906982421875,-0.5501708984375,26.611328125,-127.685546875,-48.583984375
20817.670099708,0.9154052734375,0.5906982421875,-0.5501708984375,26.611328125,-127.685546875,-48.583984375
20817.670476083,0.9154052734375,0.4920654296875,-0.5501708984375,26.611328125,-127.685546875,-48.583984375
20817.670645833,0.9154052734375,0.4920654296875,-0.4656982421875,26.611328125,-127.685546875,-48.583984375
20817.760188666,0.9154052734375,0.4920654296875,-0.4656982421875,26.611328125,-117.00439453125,-48.583984375
20817.778232791,0.9154052734375,0.4920654296875,-0.4656982421875,26.611328125,-117.00439453125,-49.560546875
20817.7783255,0.9266357421875,0.4920654296875,-0.4656982421875,26.611328125,-117.00439453125,-49.560546875
20817.778401083,0.9266357421875,0.5,-0.4656982421875,26.611328125,-117.00439453125,-49.560546875
20817.778473333,0.9266357421875,0.5,-0.4656982421875,26.611328125,-96.8017578125,-49.560546875
20817.778543666,0.9266357421875,0.5,-0.4656982421875,26.611328125,-96.8017578125,-38.818359375
20817.804616666,0.9237060546875,0.5,-0.4656982421875,26.611328125,-96.8017578125,-38.818359375
20817.811379208,0.9237060546875,0.401611328125,-0.4656982421875,26.611328125,-96.8017578125,-38.818359375
20817.811415,0.9237060546875,0.401611328125,-0.3177490234375,26.611328125,-96.8017578125,-38.818359375
20817.811445333,0.9237060546875,0.401611328125,-0.3177490234375,26.611328125,-60.72998046875,-38.818359375
20817.820143958,0.9246826171875,0.401611328125,-0.3177490234375,26.611328125,-60.72998046875,-38.818359375
20817.820417125,0.9246826171875,0.4183349609375,-0.3177490234375,26.611328125,-60.72998046875,-38.818359375
20817.820552291,0.9246826171875,0.4183349609375,-0.2982177734375,26.611328125,-60.72998046875,-38.818359375
20817.850286541,0.9246826171875,0.4183349609375,-0.2982177734375,26.611328125,-53.64990234375,-38.818359375
20817.854387875,0.9246826171875,0.4183349609375,-0.2982177734375,26.611328125,-53.64990234375,-23.25439453125
20817.865205875,0.8916015625,0.4183349609375,-0.2982177734375,26.611328125,-53.64990234375,-23.25439453125
20817.894212958,0.8916015625,0.429931640625,-0.2982177734375,26.611328125,-53.64990234375,-23.25439453125
20817.894249791,0.8916015625,0.429931640625,-0.2728271484375,26.611328125,-53.64990234375,-23.25439453125
20817.909945875,0.8916015625,0.429931640625,-0.2728271484375,26.611328125,-53.64990234375,-16.90673828125
20817.910165625,0.8963623046875,0.429931640625,-0.2728271484375,26.611328125,-53.64990234375,-16.90673828125
20817.910271583,0.8963623046875,0.429931640625,-0.26220703125,26.611328125,-53.64990234375,-16.90673828125
20817.910622375,0.8963623046875,0.429931640625,-0.26220703125,-3.35693359375,-53.64990234375,-16.90673828125
20817.9276605,0.899169921875,0.429931640625,-0.26220703125,-3.35693359375,-53.64990234375,-16.90673828125
20817.927725666,0.899169921875,0.4249267578125,-0.26220703125,-3.35693359375,-53.64990234375,-16.90673828125
20817.9277975,0.899169921875,0.4249267578125,-0.2850341796875,-3.35693359375,-53.64990234375,-16.90673828125
20817.944554666,0.899169921875,0.4249267578125,-0.2850341796875,-3.35693359375,-11.65771484375,-16.90673828125
20817.944589916,0.899169921875,0.4249267578125,-0.2850341796875,-3.35693359375,-11.65771484375,-5.79833984375
20817.96901975,0.8773193359375,0.4249267578125,-0.2850341796875,-3.35693359375,-11.65771484375,-5.79833984375
20817.985388375,0.8773193359375,0.476806640625,-0.2850341796875,-3.35693359375,-11.65771484375,-5.79833984375
20817.985736125,0.8773193359375,0.476806640625,-0.345458984375,-3.35693359375,-11.65771484375,-5.79833984375
20817.98583275,0.8773193359375,0.476806640625,-0.345458984375,-9.1552734375,-11.65771484375,-5.79833984375
20817.986020583,0.8675537109375,0.476806640625,-0.345458984375,-9.1552734375,-11.65771484375,-5.79833984375
20817.999931416,0.8675537109375,0.476806640625,-0.417236328125,-9.1552734375,-11.65771484375,-5.79833984375
20818.030005458,0.8675537109375,0.476806640625,-0.417236328125,-8.7890625,-11.65771484375,-5.79833984375
20818.030177083,0.8675537109375,0.476806640625,-0.417236328125,-8.7890625,14.70947265625,-5.79833984375
20818.030447208,0.8699951171875,0.476806640625,-0.417236328125,-8.7890625,14.70947265625,-5.79833984375
20818.030637,0.8699951171875,0.5052490234375,-0.417236328125,-8.7890625,14.70947265625,-5.79833984375
20818.044833541,0.8699951171875,0.5052490234375,-0.417236328125,-11.23046875,14.70947265625,-5.79833984375
20818.045020666,0.8699951171875,0.5052490234375,-0.417236328125,-11.23046875,36.92626953125,-5.79833984375
20818.045114875,0.8699951171875,0.5052490234375,-0.417236328125,-11.23046875,36.92626953125,20.69091796875
20818.08966625,0.9036865234375,0.5052490234375,-0.417236328125,-11.23046875,36.92626953125,20.69091796875
20818.089825375,0.9036865234375,0.52587890625,-0.417236328125,-11.23046875,36.92626953125,20.69091796875
20818.090748041,0.9036865234375,0.52587890625,-0.549072265625,-11.23046875,36.92626953125,20.69091796875
20818.090924166,0.9036865234375,0.52587890625,-0.549072265625,-42.29736328125,36.92626953125,20.69091796875
20818.110664833,0.925537109375,0.52587890625,-0.549072265625,-42.29736328125,36.92626953125,20.69091796875
20818.110700833,0.925537109375,0.5772705078125,-0.549072265625,-42.29736328125,36.92626953125,20.69091796875
20818.110730875,0.925537109375,0.5772705078125,-0.5953369140625,-42.29736328125,36.92626953125,20.69091796875
20818.119616166,0.925537109375,0.5772705078125,-0.5953369140625,-42.29736328125,100.830078125,20.69091796875
20818.150039708,0.925537109375,0.5772705078125,-0.5953369140625,-42.29736328125,100.830078125,52.79541015625
20818.150196041,0.9649658203125,0.5772705078125,-0.5953369140625,-42.29736328125,100.830078125,52.79541015625
20818.193663791,0.9649658203125,0.6075439453125,-0.5953369140625,-42.29736328125,100.830078125,52.79541015625
20818.209954,0.9649658203125,0.6075439453125,-0.699951171875,-42.29736328125,100.830078125,52.79541015625
20818.211655458,0.9649658203125,0.6075439453125,-0.699951171875,-42.29736328125,139.0380859375,52.79541015625
20818.211723125,0.9649658203125,0.6075439453125,-0.699951171875,-42.29736328125,139.0380859375,64.51416015625
20818.227661083,0.9649658203125,0.671630859375,-0.699951171875,-42.29736328125,139.0380859375,64.51416015625
20818.245115291,0.9649658203125,0.671630859375,-0.699951171875,-75.927734375,139.0380859375,64.51416015625
20818.24519325,0.9649658203125,0.671630859375,-0.699951171875,-75.927734375,177.001953125,64.51416015625
20818.245264208,0.9649658203125,0.671630859375,-0.699951171875,-75.927734375,177.001953125,75.1953125
20818.245350791,0.97607421875,0.671630859375,-0.699951171875,-75.927734375,177.001953125,75.1953125
20818.254934041,0.97607421875,0.671630859375,-0.699951171875,-75.927734375,219.3603515625,75.1953125
20818.255139833,0.97607421875,0.671630859375,-0.699951171875,-75.927734375,219.3603515625,76.416015625
20818.284260083,0.8839111328125,0.671630859375,-0.699951171875,-75.927734375,219.3603515625,76.416015625
20818.29997925,0.8839111328125,0.6220703125,-0.699951171875,-75.927734375,219.3603515625,76.416015625
20818.300233916,0.8839111328125,0.6220703125,-0.9971923828125,-75.927734375,219.3603515625,76.416015625
20818.300371708,0.8839111328125,0.6220703125,-0.9971923828125,-27.9541015625,219.3603515625,76.416015625
20818.300737125,0.7938232421875,0.6220703125,-0.9971923828125,-27.9541015625,219.3603515625,76.416015625
20818.33023525,0.7938232421875,0.6220703125,-1.0289306640625,-27.9541015625,219.3603515625,76.416015625
20818.331234833,0.7938232421875,0.6220703125,-1.0289306640625,-20.56884765625,219.3603515625,76.416015625
20818.331537083,0.7938232421875,0.6220703125,-1.0289306640625,-20.56884765625,236.6943359375,76.416015625
20818.331664166,0.7154541015625,0.6220703125,-1.0289306640625,-20.56884765625,236.6943359375,76.416015625
20818.344656291,0.7154541015625,0.6220703125,-1.0318603515625,-20.56884765625,236.6943359375,76.416015625
20818.344756708,0.7154541015625,0.6220703125,-1.0318603515625,-17.27294921875,236.6943359375,76.416015625
20818.344786916,0.7154541015625,0.6220703125,-1.0318603515625,-17.27294921875,242.00439453125,76.416015625
20818.373986,0.5130615234375,0.6220703125,-1.0318603515625,-17.27294921875,242.00439453125,76.416015625
20818.390072708,0.5130615234375,0.6226806640625,-1.0318603515625,-17.27294921875,242.00439453125,76.416015625
20818.390331666,0.5130615234375,0.6226806640625,-0.9622802734375,-17.27294921875,242.00439453125,76.416015625
20818.390463125,0.5130615234375,0.6226806640625,-0.9622802734375,-17.27294921875,245.9716796875,76.416015625
20818.390729791,0.5130615234375,0.6226806640625,-0.9622802734375,-17.27294921875,245.9716796875,85.8154296875
20818.41967225,0.3521728515625,0.6226806640625,-0.9622802734375,-17.27294921875,245.9716796875,85.8154296875
20818.421131458,0.3521728515625,0.4268798828125,-0.9622802734375,-17.27294921875,245.9716796875,85.8154296875
20818.421456708,0.3521728515625,0.4268798828125,-0.927490234375,-17.27294921875,245.9716796875,85.8154296875
20818.428772333,0.3521728515625,0.4268798828125,-0.927490234375,23.25439453125,245.9716796875,85.8154296875
20818.450175083,0.21142578125,0.4268798828125,-0.927490234375,23.25439453125,245.9716796875,85.8154296875
20818.450418958,0.21142578125,0.4158935546875,-0.927490234375,23.25439453125,245.9716796875,85.8154296875
20818.451289458,0.21142578125,0.4158935546875,-0.8389892578125,23.25439453125,245.9716796875,85.8154296875
20818.47955425,0.21142578125,0.4158935546875,-0.8389892578125,23.25439453125,234.375,85.8154296875
20818.47965025,0.21142578125,0.4158935546875,-0.8389892578125,23.25439453125,234.375,86.85302734375
20818.480562,0.03466796875,0.4158935546875,-0.8389892578125,23.25439453125,234.375,86.85302734375
20818.494987458,0.03466796875,0.4158935546875,-0.767333984375,23.25439453125,234.375,86.85302734375
20818.495021958,0.03466796875,0.4158935546875,-0.767333984375,-9.09423828125,234.375,86.85302734375
20818.495051666,0.03466796875,0.4158935546875,-0.767333984375,-9.09423828125,229.79736328125,86.85302734375
20818.512001208,-0.125,0.4158935546875,-0.767333984375,-9.09423828125,229.79736328125,86.85302734375
20818.512098208,-0.125,0.4447021484375,-0.767333984375,-9.09423828125,229.79736328125,86.85302734375
20818.512192291,-0.125,0.4447021484375,-0.644775390625,-9.09423828125,229.79736328125,86.85302734375
20818.527778166,-0.125,0.4447021484375,-0.644775390625,-9.09423828125,226.07421875,86.85302734375
20818.527810416,-0.125,0.4447021484375,-0.644775390625,-9.09423828125,226.07421875,90.02685546875
20818.544454958,-0.230224609375,0.4447021484375,-0.644775390625,-9.09423828125,226.07421875,90.02685546875
20818.544488708,-0.230224609375,0.306884765625,-0.644775390625,-9.09423828125,226.07421875,90.02685546875
20818.544517583,-0.230224609375,0.306884765625,-0.537109375,-9.09423828125,226.07421875,90.02685546875
20818.555013208,-0.230224609375,0.306884765625,-0.537109375,-9.09423828125,224.365234375,90.02685546875
20818.561078166,-0.230224609375,0.306884765625,-0.537109375,-9.09423828125,224.365234375,91.97998046875
20818.570067333,-0.31005859375,0.306884765625,-0.537109375,-9.09423828125,224.365234375,91.97998046875
20818.570251041,-0.31005859375,0.2918701171875,-0.537109375,-9.09423828125,224.365234375,91.97998046875
20818.571272791,-0.31005859375,0.2918701171875,-0.3724365234375,-9.09423828125,224.365234375,91.97998046875
20818.584949166,-0.31005859375,0.2918701171875,-0.3724365234375,-9.09423828125,213.134765625,91.97998046875
20818.585163875,-0.31005859375,0.2918701171875,-0.3724365234375,-9.09423828125,213.134765625,88.19580078125
20818.600213291,-0.4058837890625,0.2918701171875,-0.3724365234375,-9.09423828125,213.134765625,88.19580078125
20818.600491541,-0.4058837890625,0.3748779296875,-0.3724365234375,-9.09423828125,213.134765625,88.19580078125
20818.600627,-0.4058837890625,0.3748779296875,-0.017333984375,-9.09423828125,213.134765625,88.19580078125
20818.614910833,-0.4058837890625,0.3748779296875,-0.017333984375,-9.09423828125,188.17138671875,88.19580078125
20818.615097916,-0.4058837890625,0.3748779296875,-0.017333984375,-9.09423828125,188.17138671875,86.0595703125
20818.629918958,-0.5416259765625,0.3748779296875,-0.017333984375,-9.09423828125,188.17138671875,86.0595703125
20818.630164958,-0.5416259765625,-0.0057373046875,-0.017333984375,-9.09423828125,188.17138671875,86.0595703125
20818.630295708,-0.5416259765625,-0.0057373046875,0.396728515625,-9.09423828125,188.17138671875,86.0595703125
20818.644533166,-0.5416259765625,-0.0057373046875,0.396728515625,-9.09423828125,153.99169921875,86.0595703125
20818.64456525,-0.5416259765625,-0.0057373046875,0.396728515625,-9.09423828125,153.99169921875,84.9609375
20818.661175666,-0.611083984375,-0.0057373046875,0.396728515625,-9.09423828125,153.99169921875,84.9609375
20818.661237375,-0.611083984375,-0.50830078125,0.396728515625,-9.09423828125,153.99169921875,84.9609375
20818.661309541,-0.611083984375,-0.50830078125,0.4990234375,-9.09423828125,153.99169921875,84.9609375
20818.677823375,-0.611083984375,-0.50830078125,0.4990234375,-9.09423828125,116.02783203125,84.9609375
20818.677856333,-0.611083984375,-0.50830078125,0.4990234375,-9.09423828125,116.02783203125,66.10107421875
20818.7047955,-0.5782470703125,-0.50830078125,0.4990234375,-9.09423828125,116.02783203125,66.10107421875
20818.710997375,-0.5782470703125,-0.3101806640625,0.4990234375,-9.09423828125,116.02783203125,66.10107421875
20818.711111041,-0.5782470703125,-0.3101806640625,0.5970458984375,-9.09423828125,116.02783203125,66.10107421875
20818.719877916,-0.5782470703125,-0.3101806640625,0.5970458984375,-9.09423828125,36.07177734375,66.10107421875
20818.720075458,-0.5782470703125,-0.3101806640625,0.5970458984375,-9.09423828125,36.07177734375,10.25390625
20818.749908791,-0.701416015625,-0.3101806640625,0.5970458984375,-9.09423828125,36.07177734375,10.25390625
20818.754136583,-0.701416015625,0.1715087890625,0.5970458984375,-9.09423828125,36.07177734375,10.25390625
20818.754235,-0.701416015625,0.1715087890625,0.403564453125,-9.09423828125,36.07177734375,10.25390625
20818.779939166,-0.701416015625,0.1715087890625,0.403564453125,-9.09423828125,-76.66015625,10.25390625
20818.780070208,-0.701416015625,0.1715087890625,0.403564453125,-9.09423828125,-76.66015625,-39.6728515625
20818.79460825,-0.699462890625,0.1715087890625,0.403564453125,-9.09423828125,-76.66015625,-39.6728515625
20818.79464325,-0.699462890625,0.0150146484375,0.403564453125,-9.09423828125,-76.66015625,-39.6728515625
20818.796062208,-0.699462890625,0.0150146484375,0.084716796875,-9.09423828125,-76.66015625,-39.6728515625
20818.811141583,-0.699462890625,0.0150146484375,0.084716796875,-9.09423828125,-76.66015625,-67.87109375
20818.839917041,-0.5849609375,0.0150146484375,0.084716796875,-9.09423828125,-76.66015625,-67.87109375
20818.8401545,-0.5849609375,0.21142578125,0.084716796875,-9.09423828125,-76.66015625,-67.87109375
20818.840692791,-0.5849609375,0.21142578125,-0.0980224609375,-9.09423828125,-76.66015625,-67.87109375
20818.840908083,-0.5849609375,0.21142578125,-0.0980224609375,58.10546875,-76.66015625,-67.87109375
20818.868994916,-0.51708984375,0.21142578125,-0.0980224609375,58.10546875,-76.66015625,-67.87109375
20818.870652833,-0.51708984375,0.23828125,-0.0980224609375,58.10546875,-76.66015625,-67.87109375
20818.870943333,-0.51708984375,0.23828125,-0.143798828125,58.10546875,-76.66015625,-67.87109375
20818.87111325,-0.51708984375,0.23828125,-0.143798828125,48.88916015625,-76.66015625,-67.87109375
20818.884943208,-0.358642578125,0.23828125,-0.143798828125,48.88916015625,-76.66015625,-67.87109375
20818.885122541,-0.358642578125,0.3828125,-0.143798828125,48.88916015625,-76.66015625,-67.87109375
20818.886171833,-0.358642578125,0.3828125,-0.39306640625,48.88916015625,-76.66015625,-67.87109375
20818.900047166,-0.358642578125,0.3828125,-0.39306640625,48.88916015625,-179.74853515625,-67.87109375
20818.900218375,-0.358642578125,0.3828125,-0.39306640625,48.88916015625,-179.74853515625,-121.4599609375
20818.915003458,-0.2890625,0.3828125,-0.39306640625,48.88916015625,-179.74853515625,-121.4599609375
20818.91522725,-0.2890625,0.5985107421875,-0.39306640625,48.88916015625,-179.74853515625,-121.4599609375
20818.915301541,-0.2890625,0.5985107421875,-0.61572265625,48.88916015625,-179.74853515625,-121.4599609375
20818.929568958,-0.2890625,0.5985107421875,-0.61572265625,48.88916015625,-180.6640625,-121.4599609375
20818.929604041,-0.2890625,0.5985107421875,-0.61572265625,48.88916015625,-180.6640625,-125.8544921875
20818.9445245,-0.232666015625,0.5985107421875,-0.61572265625,48.88916015625,-180.6640625,-125.8544921875
20818.944558333,-0.232666015625,0.6217041015625,-0.61572265625,48.88916015625,-180.6640625,-125.8544921875
20818.974949666,-0.232666015625,0.6217041015625,-0.539794921875,48.88916015625,-180.6640625,-125.8544921875
20818.97517225,-0.232666015625,0.6217041015625,-0.539794921875,48.88916015625,-174.25537109375,-125.8544921875
20818.975633333,-0.232666015625,0.6217041015625,-0.539794921875,48.88916015625,-174.25537109375,-125.91552734375
20818.975882958,-0.08154296875,0.6217041015625,-0.539794921875,48.88916015625,-174.25537109375,-125.91552734375
20818.994489208,-0.08154296875,0.6217041015625,-0.539794921875,18.06640625,-174.25537109375,-125.91552734375
20818.994526,-0.08154296875,0.6217041015625,-0.539794921875,18.06640625,-169.0673828125,-125.91552734375
20818.99455675,-0.08154296875,0.6217041015625,-0.539794921875,18.06640625,-169.0673828125,-118.71337890625
20819.004927125,-0.00341796875,0.6217041015625,-0.539794921875,18.06640625,-169.0673828125,-118.71337890625
20819.011361333,-0.00341796875,0.863037109375,-0.539794921875,18.06640625,-169.0673828125,-118.71337890625
20819.011433208,-0.00341796875,0.863037109375,-0.9061279296875,18.06640625,-169.0673828125,-118.71337890625
20819.019898083,-0.00341796875,0.863037109375,-0.9061279296875,18.06640625,-159.5458984375,-118.71337890625
20819.020055291,-0.00341796875,0.863037109375,-0.9061279296875,18.06640625,-159.5458984375,-109.31396484375
20819.050538208,0.1051025390625,0.863037109375,-0.9061279296875,18.06640625,-159.5458984375,-109.31396484375
20819.050776291,0.1051025390625,0.8619384765625,-0.9061279296875,18.06640625,-159.5458984375,-109.31396484375
20819.051603291,0.1051025390625,0.8619384765625,-0.80078125,18.06640625,-159.5458984375,-109.31396484375
20819.07975275,0.1051025390625,0.8619384765625,-0.80078125,18.06640625,-149.7802734375,-109.31396484375
20819.079863083,0.1051025390625,0.8619384765625,-0.80078125,18.06640625,-149.7802734375,-105.5908203125
20819.094494916,0.2205810546875,0.8619384765625,-0.80078125,18.06640625,-149.7802734375,-105.5908203125
20819.111335541,0.2205810546875,0.982666015625,-0.80078125,18.06640625,-149.7802734375,-105.5908203125
20819.127262791,0.2205810546875,0.982666015625,-0.7239990234375,18.06640625,-149.7802734375,-105.5908203125
20819.127314625,0.2205810546875,0.982666015625,-0.7239990234375,18.06640625,-149.7802734375,-101.62353515625
20819.144136458,0.3763427734375,0.982666015625,-0.7239990234375,18.06640625,-149.7802734375,-101.62353515625
20819.144192041,0.3763427734375,0.779296875,-0.7239990234375,18.06640625,-149.7802734375,-101.62353515625
20819.144240375,0.3763427734375,0.779296875,-0.810302734375,18.06640625,-149.7802734375,-101.62353515625
20819.168899625,0.453125,0.779296875,-0.810302734375,18.06640625,-149.7802734375,-101.62353515625
20819.184779916,0.453125,1.0245361328125,-0.810302734375,18.06640625,-149.7802734375,-101.62353515625
20819.2001515,0.453125,1.0245361328125,-0.6229248046875,18.06640625,-149.7802734375,-101.62353515625
20819.200398958,0.453125,1.0245361328125,-0.6229248046875,19.22607421875,-149.7802734375,-101.62353515625
20819.20048075,0.4620361328125,1.0245361328125,-0.6229248046875,19.22607421875,-149.7802734375,-101.62353515625
20819.200831625,0.4620361328125,1.0245361328125,-0.5906982421875,19.22607421875,-149.7802734375,-101.62353515625
20819.214858916,0.4620361328125,1.0245361328125,-0.5906982421875,19.22607421875,-102.60009765625,-101.62353515625
20819.215024625,0.4620361328125,1.0245361328125,-0.5906982421875,19.22607421875,-102.60009765625,-93.44482421875
20819.259770041,0.5240478515625,1.0245361328125,-0.5906982421875,19.22607421875,-102.60009765625,-93.44482421875
20819.259990958,0.5240478515625,0.85205078125,-0.5906982421875,19.22607421875,-102.60009765625,-93.44482421875
20819.260643458,0.5240478515625,0.85205078125,-0.5811767578125,19.22607421875,-102.60009765625,-93.44482421875
20819.260911291,0.5240478515625,0.85205078125,-0.5811767578125,-8.1787109375,-102.60009765625,-93.44482421875
20819.277718083,0.55029296875,0.85205078125,-0.5811767578125,-8.1787109375,-102.60009765625,-93.44482421875
20819.277799875,0.55029296875,0.786865234375,-0.5811767578125,-8.1787109375,-102.60009765625,-93.44482421875
20819.277872583,0.55029296875,0.786865234375,-0.5382080078125,-8.1787109375,-102.60009765625,-93.44482421875
20819.294437125,0.55029296875,0.786865234375,-0.5382080078125,-8.1787109375,-96.86279296875,-93.44482421875
20819.304824541,0.55029296875,0.786865234375,-0.5382080078125,-8.1787109375,-96.86279296875,-82.51953125
20819.380104625,0.6341552734375,0.786865234375,-0.5382080078125,-8.1787109375,-96.86279296875,-82.51953125
20819.380379291,0.6341552734375,0.7508544921875,-0.5382080078125,-8.1787109375,-96.86279296875,-82.51953125
20819.380911333,0.6341552734375,0.7508544921875,-0.500244140625,-8.1787109375,-96.86279296875,-82.51953125
20819.381163291,0.6341552734375,0.7508544921875,-0.500244140625,-8.1787109375,-97.2900390625,-82.51953125
20819.411198666,0.739501953125,0.7508544921875,-0.500244140625,-8.1787109375,-97.2900390625,-82.51953125
20819.411235666,0.739501953125,0.6435546875,-0.500244140625,-8.1787109375,-97.2900390625,-82.51953125
20819.411265,0.739501953125,0.6435546875,-0.446044921875,-8.1787109375,-97.2900390625,-82.51953125
20819.411293333,0.739501953125,0.6435546875,-0.446044921875,-8.1787109375,-92.28515625,-82.51953125
20819.411320875,0.739501953125,0.6435546875,-0.446044921875,-8.1787109375,-92.28515625,-72.32666015625
20819.42781225,0.8858642578125,0.6435546875,-0.446044921875,-8.1787109375,-92.28515625,-72.32666015625
20819.42784825,0.8858642578125,0.5745849609375,-0.446044921875,-8.1787109375,-92.28515625,-72.32666015625
20819.444778625,0.8858642578125,0.5745849609375,-0.3785400390625,-8.1787109375,-92.28515625,-72.32666015625
20819.469596666,0.8858642578125,0.5745849609375,-0.3785400390625,-8.1787109375,-95.27587890625,-72.32666015625
20819.48507375,0.8858642578125,0.5745849609375,-0.3785400390625,-8.1787109375,-95.27587890625,-75.13427734375
20819.499880083,0.93505859375,0.5745849609375,-0.3785400390625,-8.1787109375,-95.27587890625,-75.13427734375
20819.515207208,0.93505859375,0.5628662109375,-0.3785400390625,-8.1787109375,-95.27587890625,-75.13427734375
20819.515480208,0.93505859375,0.5628662109375,-0.3785400390625,-8.1787109375,-100.64697265625,-75.13427734375
20819.515648708,0.964111328125,0.5628662109375,-0.3785400390625,-8.1787109375,-100.64697265625,-75.13427734375
20819.5159195,0.964111328125,0.5628662109375,-0.33837890625,-8.1787109375,-100.64697265625,-75.13427734375
20819.529904375,0.964111328125,0.5628662109375,-0.33837890625,-8.1787109375,-99.18212890625,-75.13427734375
20819.530116833,0.964111328125,0.5628662109375,-0.33837890625,-8.1787109375,-99.18212890625,-69.03076171875
20819.558897875,0.9339599609375,0.5628662109375,-0.33837890625,-8.1787109375,-99.18212890625,-69.03076171875
20819.560591916,0.9339599609375,0.503662109375,-0.33837890625,-8.1787109375,-99.18212890625,-69.03076171875
20819.56062875,0.9339599609375,0.503662109375,-0.280029296875,-8.1787109375,-99.18212890625,-69.03076171875
20819.560661083,0.9339599609375,0.503662109375,-0.280029296875,-31.8603515625,-99.18212890625,-69.03076171875
20819.589928708,0.9205322265625,0.503662109375,-0.280029296875,-31.8603515625,-99.18212890625,-69.03076171875
20819.590146458,0.9205322265625,0.527587890625,-0.280029296875,-31.8603515625,-99.18212890625,-69.03076171875
20819.590489083,0.9205322265625,0.527587890625,-0.2528076171875,-31.8603515625,-99.18212890625,-69.03076171875
20819.619127291,0.9205322265625,0.527587890625,-0.2528076171875,-31.8603515625,-73.30322265625,-69.03076171875
20819.650189,0.9205322265625,0.527587890625,-0.2528076171875,-31.8603515625,-73.30322265625,-47.607421875
20819.680354791,0.9559326171875,0.527587890625,-0.2528076171875,-31.8603515625,-73.30322265625,-47.607421875
20819.68065775,0.9559326171875,0.527587890625,-0.1929931640625,-31.8603515625,-73.30322265625,-47.607421875
20819.680752208,0.9559326171875,0.527587890625,-0.1929931640625,4.82177734375,-73.30322265625,-47.607421875
20819.680992916,0.9559326171875,0.527587890625,-0.1929931640625,4.82177734375,-73.30322265625,-37.353515625
20819.694515208,0.9559326171875,0.6678466796875,-0.1929931640625,4.82177734375,-73.30322265625,-37.353515625
20819.694584166,0.9559326171875,0.6678466796875,-0.3934326171875,4.82177734375,-73.30322265625,-37.353515625
20819.694670833,0.9559326171875,0.6678466796875,-0.3934326171875,-21.3623046875,-73.30322265625,-37.353515625
20819.723756833,0.9559326171875,0.6678466796875,-0.3934326171875,-21.3623046875,-73.30322265625,-21.54541015625
20819.744362125,0.8643798828125,0.6678466796875,-0.3934326171875,-21.3623046875,-73.30322265625,-21.54541015625
20819.754842708,0.8643798828125,0.4471435546875,-0.3934326171875,-21.3623046875,-73.30322265625,-21.54541015625
20819.830972291,0.8643798828125,0.4471435546875,-0.162353515625,-21.3623046875,-73.30322265625,-21.54541015625
20819.831327583,0.8643798828125,0.4471435546875,-0.162353515625,-21.3623046875,-17.9443359375,-21.54541015625
20819.831506041,0.8643798828125,0.4471435546875,-0.162353515625,-21.3623046875,-17.9443359375,-3.173828125
20819.861236458,0.8834228515625,0.4471435546875,-0.162353515625,-21.3623046875,-17.9443359375,-3.173828125
20819.861277875,0.8834228515625,0.4471435546875,-0.162353515625,-11.8408203125,-17.9443359375,-3.173828125
20819.878409041,0.8834228515625,0.4471435546875,-0.162353515625,-11.8408203125,6.04248046875,-3.173828125
20819.894614166,0.8834228515625,0.4471435546875,-0.162353515625,-11.8408203125,6.04248046875,13.85498046875
20819.894647625,0.9376220703125,0.4471435546875,-0.162353515625,-11.8408203125,6.04248046875,13.85498046875
20819.894677875,0.9376220703125,0.369140625,-0.162353515625,-11.8408203125,6.04248046875,13.85498046875
20819.904865416,0.9376220703125,0.369140625,-0.162353515625,-11.8408203125,6.04248046875,19.287109375
20819.934770625,0.9039306640625,0.369140625,-0.162353515625,-11.8408203125,6.04248046875,19.287109375
20819.935836333,0.9039306640625,0.351318359375,-0.162353515625,-11.8408203125,6.04248046875,19.287109375
20819.980074208,0.9039306640625,0.351318359375,-0.078369140625,-11.8408203125,6.04248046875,19.287109375
20819.995690041,0.9039306640625,0.351318359375,-0.078369140625,0.30517578125,6.04248046875,19.287109375
20819.996135791,0.90966796875,0.351318359375,-0.078369140625,0.30517578125,6.04248046875,19.287109375
20819.996253,0.90966796875,0.3458251953125,-0.078369140625,0.30517578125,6.04248046875,19.287109375
20819.996431833,0.90966796875,0.3458251953125,-0.078369140625,0.30517578125,27.83203125,19.287109375
20820.034300708,0.909912109375,0.3458251953125,-0.078369140625,0.30517578125,27.83203125,19.287109375
20820.043991458,0.909912109375,0.3497314453125,-0.078369140625,0.30517578125,27.83203125,19.287109375
20820.044076458,0.909912109375,0.3497314453125,-0.1085205078125,0.30517578125,27.83203125,19.287109375
20820.045342916,0.909912109375,0.3497314453125,-0.1085205078125,-0.54931640625,27.83203125,19.287109375
20820.078253,0.92138671875,0.3497314453125,-0.1085205078125,-0.54931640625,27.83203125,19.287109375
20820.078338125,0.92138671875,0.3497314453125,-0.1204833984375,-0.54931640625,27.83203125,19.287109375
20820.078374833,0.92138671875,0.3497314453125,-0.1204833984375,-7.01904296875,27.83203125,19.287109375
20820.0784665,0.92138671875,0.3497314453125,-0.1204833984375,-7.01904296875,42.8466796875,19.287109375
20820.10048775,0.92138671875,0.3497314453125,-0.1353759765625,-7.01904296875,42.8466796875,19.287109375
20820.100639625,0.92138671875,0.3497314453125,-0.1353759765625,-1.5869140625,42.8466796875,19.287109375
20820.101492541,0.92138671875,0.3497314453125,-0.1353759765625,-1.5869140625,37.59765625,19.287109375
20820.145252416,0.8765869140625,0.3497314453125,-0.1353759765625,-1.5869140625,37.59765625,19.287109375
20820.175096208,0.8765869140625,0.40673828125,-0.1353759765625,-1.5869140625,37.59765625,19.287109375
20820.17521125,0.8765869140625,0.40673828125,-0.1363525390625,-1.5869140625,37.59765625,19.287109375
20820.175547958,0.8765869140625,0.40673828125,-0.1363525390625,-1.5869140625,31.982421875,19.287109375
20820.17582325,0.862060546875,0.40673828125,-0.1363525390625,-1.5869140625,31.982421875,19.287109375
20820.194993958,0.862060546875,0.40673828125,-0.152099609375,-1.5869140625,31.982421875,19.287109375
20820.195039,0.862060546875,0.40673828125,-0.152099609375,10.31494140625,31.982421875,19.287109375
20820.195072166,0.862060546875,0.40673828125,-0.152099609375,10.31494140625,17.15087890625,19.287109375
20820.205022666,0.8553466796875,0.40673828125,-0.152099609375,10.31494140625,17.15087890625,19.287109375
20820.212036583,0.8553466796875,0.4385986328125,-0.152099609375,10.31494140625,17.15087890625,19.287109375
20820.212079208,0.8553466796875,0.4385986328125,-0.2041015625,10.31494140625,17.15087890625,19.287109375
20820.220726958,0.8553466796875,0.4385986328125,-0.2041015625,10.31494140625,14.58740234375,19.287109375
20820.234776166,0.8553466796875,0.4385986328125,-0.2041015625,10.31494140625,14.58740234375,10.07080078125
20820.234908708,0.8341064453125,0.4385986328125,-0.2041015625,10.31494140625,14.58740234375,10.07080078125
20820.249660958,0.8341064453125,0.500732421875,-0.2041015625,10.31494140625,14.58740234375,10.07080078125
20820.249755125,0.8341064453125,0.500732421875,-0.208740234375,10.31494140625,14.58740234375,10.07080078125
20820.264784791,0.8341064453125,0.500732421875,-0.208740234375,10.31494140625,17.27294921875,10.07080078125
20820.294337125,0.832275390625,0.500732421875,-0.208740234375,10.31494140625,17.27294921875,10.07080078125
20820.294445166,0.832275390625,0.478759765625,-0.208740234375,10.31494140625,17.27294921875,10.07080078125
20820.30990925,0.832275390625,0.478759765625,-0.2396240234375,10.31494140625,17.27294921875,10.07080078125
20820.32464925,0.832275390625,0.478759765625,-0.2396240234375,10.31494140625,19.775390625,10.07080078125
20820.344205,0.8228759765625,0.478759765625,-0.2396240234375,10.31494140625,19.775390625,10.07080078125
20820.344239916,0.8228759765625,0.478759765625,-0.28857421875,10.31494140625,19.775390625,10.07080078125
20820.344271791,0.8228759765625,0.478759765625,-0.28857421875,4.150390625,19.775390625,10.07080078125
20820.3442995,0.8228759765625,0.478759765625,-0.28857421875,4.150390625,19.775390625,15.31982421875
20820.3547305,0.826904296875,0.478759765625,-0.28857421875,4.150390625,19.775390625,15.31982421875
20820.361097291,0.826904296875,0.5531005859375,-0.28857421875,4.150390625,19.775390625,15.31982421875
20820.361154875,0.826904296875,0.5531005859375,-0.3896484375,4.150390625,19.775390625,15.31982421875
20820.36965175,0.826904296875,0.5531005859375,-0.3896484375,4.150390625,32.65380859375,15.31982421875
20820.369747916,0.826904296875,0.5531005859375,-0.3896484375,4.150390625,32.65380859375,27.64892578125
20820.399431541,0.802001953125,0.5531005859375,-0.3896484375,4.150390625,32.65380859375,27.64892578125
20820.428713833,0.802001953125,0.593994140625,-0.3896484375,4.150390625,32.65380859375,27.64892578125
20820.474680458,0.802001953125,0.593994140625,-0.4228515625,4.150390625,32.65380859375,27.64892578125
20820.474892916,0.802001953125,0.593994140625,-0.4228515625,4.150390625,46.38671875,27.64892578125
20820.475580375,0.802001953125,0.593994140625,-0.4228515625,4.150390625,46.38671875,38.51318359375
20820.489714708,0.802001953125,0.69384765625,-0.4228515625,4.150390625,46.38671875,38.51318359375
20820.489829708,0.802001953125,0.69384765625,-0.5545654296875,4.150390625,46.38671875,38.51318359375
20820.491083,0.802001953125,0.69384765625,-0.5545654296875,-44.189453125,46.38671875,38.51318359375
20820.549591291,0.802001953125,0.69384765625,-0.5545654296875,-44.189453125,46.38671875,48.15673828125
20820.549704708,0.66015625,0.69384765625,-0.5545654296875,-44.189453125,46.38671875,48.15673828125
20820.550552291,0.66015625,0.7445068359375,-0.5545654296875,-44.189453125,46.38671875,48.15673828125
20820.550650708,0.66015625,0.7445068359375,-0.740478515625,-44.189453125,46.38671875,48.15673828125
20820.564610375,0.66015625,0.7445068359375,-0.740478515625,-44.189453125,107.2998046875,48.15673828125
20820.579934041,0.66015625,0.7445068359375,-0.740478515625,-44.189453125,107.2998046875,66.650390625
20820.580073833,0.57421875,0.7445068359375,-0.740478515625,-44.189453125,107.2998046875,66.650390625
20820.580148208,0.57421875,0.7222900390625,-0.740478515625,-44.189453125,107.2998046875,66.650390625
20820.580722916,0.57421875,0.7222900390625,-0.833984375,-44.189453125,107.2998046875,66.650390625
20820.59466975,0.57421875,0.7222900390625,-0.833984375,-44.189453125,133.60595703125,66.650390625
20820.594796833,0.57421875,0.7222900390625,-0.833984375,-44.189453125,133.60595703125,70.4345703125
20820.639672916,0.5106201171875,0.7222900390625,-0.833984375,-44.189453125,133.60595703125,70.4345703125
20820.639789333,0.5106201171875,0.7720947265625,-0.833984375,-44.189453125,133.60595703125,70.4345703125
20820.64049875,0.5106201171875,0.7720947265625,-0.8558349609375,-44.189453125,133.60595703125,70.4345703125
20820.640630416,0.5106201171875,0.7720947265625,-0.8558349609375,-28.38134765625,133.60595703125,70.4345703125
20820.660811958,0.4686279296875,0.7720947265625,-0.8558349609375,-28.38134765625,133.60595703125,70.4345703125
20820.660865958,0.4686279296875,0.727294921875,-0.8558349609375,-28.38134765625,133.60595703125,70.4345703125
20820.660908958,0.4686279296875,0.727294921875,-0.8502197265625,-28.38134765625,133.60595703125,70.4345703125
20820.669718541,0.4686279296875,0.727294921875,-0.8502197265625,-28.38134765625,151.06201171875,70.4345703125
20820.669830041,0.4686279296875,0.727294921875,-0.8502197265625,-28.38134765625,151.06201171875,79.28466796875
20820.700295458,0.311279296875,0.727294921875,-0.8502197265625,-28.38134765625,151.06201171875,79.28466796875
20820.700383166,0.311279296875,0.5867919921875,-0.8502197265625,-28.38134765625,151.06201171875,79.28466796875
20820.700559583,0.311279296875,0.5867919921875,-0.6861572265625,-28.38134765625,151.06201171875,79.28466796875
20820.7298715,0.311279296875,0.5867919921875,-0.6861572265625,-28.38134765625,145.1416015625,79.28466796875
20820.730009916,0.311279296875,0.5867919921875,-0.6861572265625,-28.38134765625,145.1416015625,76.2939453125
20820.744736166,0.2310791015625,0.5867919921875,-0.6861572265625,-28.38134765625,145.1416015625,76.2939453125
20820.744771541,0.2310791015625,0.5445556640625,-0.6861572265625,-28.38134765625,145.1416015625,76.2939453125
20820.744830083,0.2310791015625,0.5445556640625,-0.590087890625,-28.38134765625,145.1416015625,76.2939453125
20820.761421708,0.2310791015625,0.5445556640625,-0.590087890625,-28.38134765625,145.1416015625,67.0166015625
20820.794899041,0.132080078125,0.5445556640625,-0.590087890625,-28.38134765625,145.1416015625,67.0166015625
20820.794977125,0.132080078125,0.474365234375,-0.590087890625,-28.38134765625,145.1416015625,67.0166015625
20820.795025916,0.132080078125,0.474365234375,-0.5670166015625,-28.38134765625,145.1416015625,67.0166015625
20820.795073125,0.132080078125,0.474365234375,-0.5670166015625,16.2353515625,145.1416015625,67.0166015625
20820.819445125,0.072509765625,0.474365234375,-0.5670166015625,16.2353515625,145.1416015625,67.0166015625
20820.819555,0.072509765625,0.47119140625,-0.5670166015625,16.2353515625,145.1416015625,67.0166015625
20820.83465125,0.072509765625,0.47119140625,-0.527587890625,16.2353515625,145.1416015625,67.0166015625
20820.83475175,0.072509765625,0.47119140625,-0.527587890625,12.51220703125,145.1416015625,67.0166015625
20820.849930875,0.0166015625,0.47119140625,-0.527587890625,12.51220703125,145.1416015625,67.0166015625
20820.849973958,0.0166015625,0.4822998046875,-0.527587890625,12.51220703125,145.1416015625,67.0166015625
20820.850054833,0.0166015625,0.4822998046875,-0.527587890625,12.51220703125,69.15283203125,67.0166015625
20820.850756333,0.0166015625,0.4822998046875,-0.527587890625,12.51220703125,69.15283203125,33.50830078125
20820.879471833,-0.0689697265625,0.4822998046875,-0.527587890625,12.51220703125,69.15283203125,33.50830078125
20820.879579541,-0.0689697265625,0.540771484375,-0.527587890625,12.51220703125,69.15283203125,33.50830078125
20820.909527083,-0.0689697265625,0.540771484375,-0.556640625,12.51220703125,69.15283203125,33.50830078125
20820.909573666,-0.0689697265625,0.540771484375,-0.556640625,-1.46484375,69.15283203125,33.50830078125
20820.910424708,-0.095947265625,0.540771484375,-0.556640625,-1.46484375,69.15283203125,33.50830078125
20820.910459166,-0.095947265625,0.531982421875,-0.556640625,-1.46484375,69.15283203125,33.50830078125
20820.927055708,-0.095947265625,0.531982421875,-0.556640625,-1.46484375,38.75732421875,33.50830078125
20820.927095083,-0.095947265625,0.531982421875,-0.556640625,-1.46484375,38.75732421875,20.751953125
20820.954461125,-0.1729736328125,0.531982421875,-0.556640625,-1.46484375,38.75732421875,20.751953125
20820.960372375,-0.1729736328125,0.592529296875,-0.556640625,-1.46484375,38.75732421875,20.751953125
20820.960436416,-0.1729736328125,0.592529296875,-0.64501953125,-1.46484375,38.75732421875,20.751953125
20820.96046675,-0.1729736328125,0.592529296875,-0.64501953125,-23.3154296875,38.75732421875,20.751953125
20820.969723208,-0.2071533203125,0.592529296875,-0.64501953125,-23.3154296875,38.75732421875,20.751953125
20820.969861666,-0.2071533203125,0.6473388671875,-0.64501953125,-23.3154296875,38.75732421875,20.751953125
20820.96993025,-0.2071533203125,0.6473388671875,-0.7071533203125,-23.3154296875,38.75732421875,20.751953125
20821.000203875,-0.2071533203125,0.6473388671875,-0.7071533203125,-23.3154296875,19.6533203125,20.751953125
20821.000318208,-0.2071533203125,0.6473388671875,-0.7071533203125,-23.3154296875,19.6533203125,15.93017578125
20821.074507625,-0.2652587890625,0.6473388671875,-0.7071533203125,-23.3154296875,19.6533203125,15.93017578125
20821.076235083,-0.2652587890625,0.611328125,-0.7071533203125,-23.3154296875,19.6533203125,15.93017578125
20821.076417833,-0.2652587890625,0.611328125,-0.7652587890625,-23.3154296875,19.6533203125,15.93017578125
20821.076507125,-0.2652587890625,0.611328125,-0.7652587890625,-23.3154296875,19.6533203125,17.08984375
20821.094076583,-0.2652587890625,0.640869140625,-0.7652587890625,-23.3154296875,19.6533203125,17.08984375
20821.09412625,-0.2652587890625,0.640869140625,-0.8189697265625,-23.3154296875,19.6533203125,17.08984375
20821.094168541,-0.2652587890625,0.640869140625,-0.8189697265625,-41.8701171875,19.6533203125,17.08984375
20821.104549125,-0.2652587890625,0.640869140625,-0.8189697265625,-41.8701171875,19.6533203125,17.4560546875
20821.119744916,-0.43701171875,0.640869140625,-0.8189697265625,-41.8701171875,19.6533203125,17.4560546875
20821.119893708,-0.43701171875,0.53466796875,-0.8189697265625,-41.8701171875,19.6533203125,17.4560546875
20821.119969166,-0.43701171875,0.53466796875,-0.85302734375,-41.8701171875,19.6533203125,17.4560546875
20821.134642625,-0.43701171875,0.53466796875,-0.85302734375,-41.8701171875,36.62109375,17.4560546875
20821.1494955,-0.43701171875,0.53466796875,-0.85302734375,-41.8701171875,36.62109375,20.81298828125
20821.164679958,-0.4794921875,0.53466796875,-0.85302734375,-41.8701171875,36.62109375,20.81298828125
20821.164815833,-0.4794921875,0.5582275390625,-0.85302734375,-41.8701171875,36.62109375,20.81298828125
20821.164887833,-0.4794921875,0.5582275390625,-0.8160400390625,-41.8701171875,36.62109375,20.81298828125
20821.194217916,-0.4794921875,0.5582275390625,-0.8160400390625,-41.8701171875,43.9453125,20.81298828125
20821.194292166,-0.4794921875,0.5582275390625,-0.8160400390625,-41.8701171875,43.9453125,21.05712890625
20821.209682166,-0.503662109375,0.5582275390625,-0.8160400390625,-41.8701171875,43.9453125,21.05712890625
20821.224667875,-0.503662109375,0.50048828125,-0.8160400390625,-41.8701171875,43.9453125,21.05712890625
20821.227664083,-0.503662109375,0.50048828125,-0.80126953125,-41.8701171875,43.9453125,21.05712890625
20821.227789583,-0.503662109375,0.50048828125,-0.80126953125,-41.8701171875,43.9453125,26.91650390625
20821.269849166,-0.5152587890625,0.50048828125,-0.80126953125,-41.8701171875,43.9453125,26.91650390625
20821.269944416,-0.5152587890625,0.408447265625,-0.80126953125,-41.8701171875,43.9453125,26.91650390625
20821.270785375,-0.5152587890625,0.408447265625,-0.815185546875,-41.8701171875,43.9453125,26.91650390625
20821.270941875,-0.5152587890625,0.408447265625,-0.815185546875,-20.8740234375,43.9453125,26.91650390625
NEW_REP,,,,,,
20821.300852791,-0.5177001953125,0.408447265625,-0.815185546875,-20.8740234375,43.9453125,26.91650390625
20821.30098125,-0.5177001953125,0.4888916015625,-0.815185546875,-20.8740234375,43.9453125,26.91650390625
20821.301465583,-0.5177001953125,0.4888916015625,-0.7855224609375,-20.8740234375,43.9453125,26.91650390625
20821.329849958,-0.5404052734375,0.4888916015625,-0.7855224609375,-20.8740234375,43.9453125,26.91650390625
20821.32998675,-0.5404052734375,0.4775390625,-0.7855224609375,-20.8740234375,43.9453125,26.91650390625
20821.331137958,-0.5404052734375,0.4775390625,-0.771728515625,-20.8740234375,43.9453125,26.91650390625
20821.344927166,-0.5404052734375,0.4775390625,-0.771728515625,-20.8740234375,67.32177734375,26.91650390625
20821.34509875,-0.5404052734375,0.4775390625,-0.771728515625,-20.8740234375,67.32177734375,32.1044921875
20821.374847041,-0.605712890625,0.4775390625,-0.771728515625,-20.8740234375,67.32177734375,32.1044921875
20821.374990416,-0.605712890625,0.3746337890625,-0.771728515625,-20.8740234375,67.32177734375,32.1044921875
20821.376041208,-0.605712890625,0.3746337890625,-0.728515625,-20.8740234375,67.32177734375,32.1044921875
20821.376633666,-0.605712890625,0.3746337890625,-0.728515625,-6.9580078125,67.32177734375,32.1044921875
20821.39476175,-0.6324462890625,0.3746337890625,-0.728515625,-6.9580078125,67.32177734375,32.1044921875
20821.39480225,-0.6324462890625,0.3896484375,-0.728515625,-6.9580078125,67.32177734375,32.1044921875
20821.394834208,-0.6324462890625,0.3896484375,-0.683349609375,-6.9580078125,67.32177734375,32.1044921875
20821.405156625,-0.6324462890625,0.3896484375,-0.683349609375,-6.9580078125,82.09228515625,32.1044921875
20821.411573375,-0.6324462890625,0.3896484375,-0.683349609375,-6.9580078125,82.09228515625,32.77587890625
20821.420032833,-0.65283203125,0.3896484375,-0.683349609375,-6.9580078125,82.09228515625,32.77587890625
20821.420194,-0.65283203125,0.3687744140625,-0.683349609375,-6.9580078125,82.09228515625,32.77587890625
20821.420281333,-0.65283203125,0.3687744140625,-0.5469970703125,-6.9580078125,82.09228515625,32.77587890625
20821.435141208,-0.65283203125,0.3687744140625,-0.5469970703125,-6.9580078125,83.8623046875,32.77587890625
20821.435219916,-0.65283203125,0.3687744140625,-0.5469970703125,-6.9580078125,83.8623046875,30.57861328125
20821.450284125,-0.6640625,0.3687744140625,-0.5469970703125,-6.9580078125,83.8623046875,30.57861328125
20821.450436583,-0.6640625,0.3489990234375,-0.5469970703125,-6.9580078125,83.8623046875,30.57861328125
20821.450487625,-0.6640625,0.3489990234375,-0.480712890625,-6.9580078125,83.8623046875,30.57861328125
20821.464916541,-0.6640625,0.3489990234375,-0.480712890625,-6.9580078125,80.810546875,30.57861328125
20821.465042416,-0.6640625,0.3489990234375,-0.480712890625,-6.9580078125,80.810546875,29.9072265625
20821.494754791,-0.682861328125,0.3489990234375,-0.480712890625,-6.9580078125,80.810546875,29.9072265625
20821.494962458,-0.682861328125,0.2684326171875,-0.480712890625,-6.9580078125,80.810546875,29.9072265625
20821.495591375,-0.682861328125,0.2684326171875,-0.3228759765625,-6.9580078125,80.810546875,29.9072265625
20821.495744291,-0.682861328125,0.2684326171875,-0.3228759765625,30.029296875,80.810546875,29.9072265625
20821.511230708,-0.69287109375,0.2684326171875,-0.3228759765625,30.029296875,80.810546875,29.9072265625
20821.511311833,-0.69287109375,0.28369140625,-0.3228759765625,30.029296875,80.810546875,29.9072265625
20821.511360583,-0.69287109375,0.28369140625,-0.310302734375,30.029296875,80.810546875,29.9072265625
20821.527904791,-0.69287109375,0.28369140625,-0.310302734375,30.029296875,53.7109375,29.9072265625
20821.527958666,-0.69287109375,0.28369140625,-0.310302734375,30.029296875,53.7109375,20.32470703125
20821.544572125,-0.719970703125,0.28369140625,-0.310302734375,30.029296875,53.7109375,20.32470703125
20821.544631,-0.719970703125,0.2391357421875,-0.310302734375,30.029296875,53.7109375,20.32470703125
20821.544679041,-0.719970703125,0.2391357421875,-0.2322998046875,30.029296875,53.7109375,20.32470703125
20821.55491025,-0.719970703125,0.2391357421875,-0.2322998046875,30.029296875,37.04833984375,20.32470703125
20821.56089975,-0.719970703125,0.2391357421875,-0.2322998046875,30.029296875,37.04833984375,13.12255859375
20821.5699475,-0.7237548828125,0.2391357421875,-0.2322998046875,30.029296875,37.04833984375,13.12255859375
20821.570004708,-0.7237548828125,0.1490478515625,-0.2322998046875,30.029296875,37.04833984375,13.12255859375
20821.570058291,-0.7237548828125,0.1490478515625,-0.1453857421875,30.029296875,37.04833984375,13.12255859375
20821.600406916,-0.7237548828125,0.1490478515625,-0.1453857421875,30.029296875,11.65771484375,13.12255859375
20821.600539791,-0.7237548828125,0.1490478515625,-0.1453857421875,30.029296875,11.65771484375,2.25830078125
20821.601649958,-0.697998046875,0.1490478515625,-0.1453857421875,30.029296875,11.65771484375,2.25830078125
20821.630038875,-0.697998046875,0.1490478515625,-0.1357421875,30.029296875,11.65771484375,2.25830078125
20821.6301625,-0.697998046875,0.1490478515625,-0.1357421875,30.3955078125,11.65771484375,2.25830078125
20821.630217125,-0.697998046875,0.1490478515625,-0.1357421875,30.3955078125,-15.13671875,2.25830078125
20821.645142416,-0.628662109375,0.1490478515625,-0.1357421875,30.3955078125,-15.13671875,2.25830078125
20821.645204583,-0.628662109375,0.170654296875,-0.1357421875,30.3955078125,-15.13671875,2.25830078125
20821.645336375,-0.628662109375,0.170654296875,-0.05908203125,30.3955078125,-15.13671875,2.25830078125
20821.661584166,-0.628662109375,0.170654296875,-0.05908203125,30.3955078125,-45.22705078125,2.25830078125
20821.661641208,-0.628662109375,0.170654296875,-0.05908203125,30.3955078125,-45.22705078125,-35.5224609375
20821.677909041,-0.5391845703125,0.170654296875,-0.05908203125,30.3955078125,-45.22705078125,-35.5224609375
20821.694732375,-0.5391845703125,0.1944580078125,-0.05908203125,30.3955078125,-45.22705078125,-35.5224609375
20821.694798916,-0.5391845703125,0.1944580078125,-0.1146240234375,30.3955078125,-45.22705078125,-35.5224609375
20821.694854458,-0.5391845703125,0.1944580078125,-0.1146240234375,30.3955078125,-78.857421875,-35.5224609375
20821.694907125,-0.5391845703125,0.1944580078125,-0.1146240234375,30.3955078125,-78.857421875,-59.2041015625
20821.719897,-0.42578125,0.1944580078125,-0.1146240234375,30.3955078125,-78.857421875,-59.2041015625
20821.720040458,-0.42578125,0.3140869140625,-0.1146240234375,30.3955078125,-78.857421875,-59.2041015625
20821.720611166,-0.42578125,0.3140869140625,-0.3001708984375,30.3955078125,-78.857421875,-59.2041015625
20821.720747166,-0.42578125,0.3140869140625,-0.3001708984375,57.861328125,-78.857421875,-59.2041015625
20821.749389833,-0.3519287109375,0.3140869140625,-0.3001708984375,57.861328125,-78.857421875,-59.2041015625
20821.780048916,-0.3519287109375,0.4171142578125,-0.3001708984375,57.861328125,-78.857421875,-59.2041015625
20821.78023475,-0.3519287109375,0.4171142578125,-0.344482421875,57.861328125,-78.857421875,-59.2041015625
20821.780784916,-0.3519287109375,0.4171142578125,-0.344482421875,46.08154296875,-78.857421875,-59.2041015625
20821.780965875,-0.2703857421875,0.4171142578125,-0.344482421875,46.08154296875,-78.857421875,-59.2041015625
20821.794654958,-0.2703857421875,0.4171142578125,-0.4359130859375,46.08154296875,-78.857421875,-59.2041015625
20821.794689708,-0.2703857421875,0.4171142578125,-0.4359130859375,44.921875,-78.857421875,-59.2041015625
20821.796120958,-0.2703857421875,0.4171142578125,-0.4359130859375,44.921875,-128.662109375,-59.2041015625
20821.812152166,-0.172607421875,0.4171142578125,-0.4359130859375,44.921875,-128.662109375,-59.2041015625
20821.812225333,-0.172607421875,0.7347412109375,-0.4359130859375,44.921875,-128.662109375,-59.2041015625
20821.812286833,-0.172607421875,0.7347412109375,-0.4510498046875,44.921875,-128.662109375,-59.2041015625
20821.827697833,-0.172607421875,0.7347412109375,-0.4510498046875,44.921875,-132.6904296875,-59.2041015625
20821.827734833,-0.172607421875,0.7347412109375,-0.4510498046875,44.921875,-132.6904296875,-126.15966796875
20821.854979208,0.0205078125,0.7347412109375,-0.4510498046875,44.921875,-132.6904296875,-126.15966796875
20821.855132333,0.0205078125,0.8314208984375,-0.4510498046875,44.921875,-132.6904296875,-126.15966796875
20821.860972333,0.0205078125,0.8314208984375,-0.698974609375,44.921875,-132.6904296875,-126.15966796875
20821.861006125,0.0205078125,0.8314208984375,-0.698974609375,47.05810546875,-132.6904296875,-126.15966796875
20821.869897708,0.1009521484375,0.8314208984375,-0.698974609375,47.05810546875,-132.6904296875,-126.15966796875
20821.870025083,0.1009521484375,0.9842529296875,-0.698974609375,47.05810546875,-132.6904296875,-126.15966796875
20821.899225,0.1009521484375,0.9842529296875,-0.637939453125,47.05810546875,-132.6904296875,-126.15966796875
20821.903085166,0.1009521484375,0.9842529296875,-0.637939453125,47.05810546875,-129.0283203125,-126.15966796875
20821.903158708,0.1009521484375,0.9842529296875,-0.637939453125,47.05810546875,-129.0283203125,-131.16455078125
20821.929979291,0.1009521484375,0.8748779296875,-0.637939453125,47.05810546875,-129.0283203125,-131.16455078125
20821.930186458,0.1009521484375,0.8748779296875,-0.508544921875,47.05810546875,-129.0283203125,-131.16455078125
20821.930253208,0.1009521484375,0.8748779296875,-0.508544921875,59.4482421875,-129.0283203125,-131.16455078125
20821.958905791,0.1009521484375,0.8748779296875,-0.508544921875,59.4482421875,-129.0283203125,-133.544921875
20821.978480416,0.3641357421875,0.8748779296875,-0.508544921875,59.4482421875,-129.0283203125,-133.544921875
20821.978555875,0.3641357421875,1.0128173828125,-0.508544921875,59.4482421875,-129.0283203125,-133.544921875
20821.978620416,0.3641357421875,1.0128173828125,-0.5887451171875,59.4482421875,-129.0283203125,-133.544921875
20822.0044355,0.3641357421875,1.0128173828125,-0.5887451171875,59.4482421875,-112.4267578125,-133.544921875
20822.012227416,0.3641357421875,1.0128173828125,-0.5887451171875,59.4482421875,-112.4267578125,-122.314453125
20822.021090791,0.439208984375,1.0128173828125,-0.5887451171875,59.4482421875,-112.4267578125,-122.314453125
20822.021275958,0.439208984375,0.947021484375,-0.5887451171875,59.4482421875,-112.4267578125,-122.314453125
20822.021375416,0.439208984375,0.947021484375,-0.5167236328125,59.4482421875,-112.4267578125,-122.314453125
20822.080146833,0.5098876953125,0.947021484375,-0.5167236328125,59.4482421875,-112.4267578125,-122.314453125
20822.080375416,0.5098876953125,0.977783203125,-0.5167236328125,59.4482421875,-112.4267578125,-122.314453125
20822.080983708,0.5098876953125,0.977783203125,-0.5560302734375,59.4482421875,-112.4267578125,-122.314453125
20822.081184416,0.5098876953125,0.977783203125,-0.5560302734375,20.44677734375,-112.4267578125,-122.314453125
20822.109057791,0.5567626953125,0.977783203125,-0.5560302734375,20.44677734375,-112.4267578125,-122.314453125
20822.154197208,0.5567626953125,0.96337890625,-0.5560302734375,20.44677734375,-112.4267578125,-122.314453125
20822.159368791,0.5567626953125,0.96337890625,-0.493896484375,20.44677734375,-112.4267578125,-122.314453125
20822.17013525,0.5567626953125,0.96337890625,-0.493896484375,20.44677734375,-92.7734375,-122.314453125
20822.177906875,0.64208984375,0.96337890625,-0.493896484375,20.44677734375,-92.7734375,-122.314453125
20822.177976625,0.64208984375,0.96337890625,-0.4324951171875,20.44677734375,-92.7734375,-122.314453125
20822.178013916,0.64208984375,0.96337890625,-0.4324951171875,1.03759765625,-92.7734375,-122.314453125
20822.200207666,0.64208984375,0.96337890625,-0.4324951171875,1.03759765625,-92.7734375,-91.00341796875
20822.200414583,0.7236328125,0.96337890625,-0.4324951171875,1.03759765625,-92.7734375,-91.00341796875
20822.201253583,0.7236328125,0.7105712890625,-0.4324951171875,1.03759765625,-92.7734375,-91.00341796875
20822.229893291,0.7236328125,0.7105712890625,-0.4324951171875,2.9296875,-92.7734375,-91.00341796875
20822.229927916,0.7236328125,0.7105712890625,-0.4324951171875,2.9296875,-74.462890625,-91.00341796875
20822.229988083,0.7236328125,0.7105712890625,-0.4324951171875,2.9296875,-74.462890625,-76.66015625
20822.24483575,0.7802734375,0.7105712890625,-0.4324951171875,2.9296875,-74.462890625,-76.66015625
20822.244930416,0.7802734375,0.6922607421875,-0.4324951171875,2.9296875,-74.462890625,-76.66015625
20822.244960916,0.7802734375,0.6922607421875,-0.322509765625,2.9296875,-74.462890625,-76.66015625
20822.274315583,0.7802734375,0.6922607421875,-0.322509765625,2.9296875,-74.462890625,-75.0732421875
20822.2951,0.827880859375,0.6922607421875,-0.322509765625,2.9296875,-74.462890625,-75.0732421875
20822.295200958,0.827880859375,0.6295166015625,-0.322509765625,2.9296875,-74.462890625,-75.0732421875
20822.295290208,0.827880859375,0.6295166015625,-0.27099609375,2.9296875,-74.462890625,-75.0732421875
20822.304793875,0.827880859375,0.6295166015625,-0.27099609375,2.9296875,-74.462890625,-72.75390625
20822.334744083,0.8880615234375,0.6295166015625,-0.27099609375,2.9296875,-74.462890625,-72.75390625
20822.334949666,0.8880615234375,0.5902099609375,-0.27099609375,2.9296875,-74.462890625,-72.75390625
20822.364521291,0.8880615234375,0.5902099609375,-0.21337890625,2.9296875,-74.462890625,-72.75390625
20822.395215583,0.8880615234375,0.5902099609375,-0.21337890625,-8.97216796875,-74.462890625,-72.75390625
20822.395570875,0.9058837890625,0.5902099609375,-0.21337890625,-8.97216796875,-74.462890625,-72.75390625
20822.396102458,0.9058837890625,0.5479736328125,-0.21337890625,-8.97216796875,-74.462890625,-72.75390625
20822.396408291,0.9058837890625,0.5479736328125,-0.21337890625,-8.97216796875,-63.04931640625,-72.75390625
20822.411659708,0.916259765625,0.5479736328125,-0.21337890625,-8.97216796875,-63.04931640625,-72.75390625
20822.429096458,0.916259765625,0.55419921875,-0.21337890625,-8.97216796875,-63.04931640625,-72.75390625
20822.429129583,0.916259765625,0.55419921875,-0.178466796875,-8.97216796875,-63.04931640625,-72.75390625
20822.429158958,0.916259765625,0.55419921875,-0.178466796875,-8.97216796875,-52.91748046875,-72.75390625
20822.445019208,0.916259765625,0.55419921875,-0.178466796875,-8.97216796875,-52.91748046875,-51.57470703125
20822.454959875,0.861572265625,0.55419921875,-0.178466796875,-8.97216796875,-52.91748046875,-51.57470703125
20822.469966875,0.861572265625,0.524658203125,-0.178466796875,-8.97216796875,-52.91748046875,-51.57470703125
20822.47025125,0.861572265625,0.524658203125,-0.1536865234375,-8.97216796875,-52.91748046875,-51.57470703125
20822.470390333,0.861572265625,0.524658203125,-0.1536865234375,-8.97216796875,-38.26904296875,-51.57470703125
20822.56088225,0.88916015625,0.524658203125,-0.1536865234375,-8.97216796875,-38.26904296875,-51.57470703125
20822.561661,0.88916015625,0.5428466796875,-0.1536865234375,-8.97216796875,-38.26904296875,-51.57470703125
20822.561884708,0.88916015625,0.5428466796875,-0.108154296875,-8.97216796875,-38.26904296875,-51.57470703125
20822.562004541,0.88916015625,0.5428466796875,-0.108154296875,-8.97216796875,-22.8271484375,-51.57470703125
20822.577016166,0.8817138671875,0.5428466796875,-0.108154296875,-8.97216796875,-22.8271484375,-51.57470703125
20822.57713175,0.8817138671875,0.435546875,-0.108154296875,-8.97216796875,-22.8271484375,-51.57470703125
20822.577228625,0.8817138671875,0.435546875,-0.039306640625,-8.97216796875,-22.8271484375,-51.57470703125
20822.595783458,0.8817138671875,0.435546875,-0.039306640625,-8.97216796875,-21.78955078125,-51.57470703125
20822.620394,0.8817138671875,0.435546875,-0.039306640625,-8.97216796875,-21.78955078125,-29.296875
20822.620693458,0.918212890625,0.435546875,-0.039306640625,-8.97216796875,-21.78955078125,-29.296875
20822.620850416,0.918212890625,0.3359375,-0.039306640625,-8.97216796875,-21.78955078125,-29.296875
20822.63524375,0.918212890625,0.3359375,-0.0634765625,-8.97216796875,-21.78955078125,-29.296875
20822.635536833,0.918212890625,0.3359375,-0.0634765625,-8.97216796875,-23.37646484375,-29.296875
20822.635672208,0.918212890625,0.3359375,-0.0634765625,-8.97216796875,-23.37646484375,-17.76123046875
20822.680253666,0.897216796875,0.3359375,-0.0634765625,-8.97216796875,-23.37646484375,-17.76123046875
20822.709736041,0.897216796875,0.3936767578125,-0.0634765625,-8.97216796875,-23.37646484375,-17.76123046875
20822.712653,0.897216796875,0.3936767578125,-0.0538330078125,-8.97216796875,-23.37646484375,-17.76123046875
20822.739136875,0.897216796875,0.3936767578125,-0.0538330078125,-26.2451171875,-23.37646484375,-17.76123046875
20822.744848416,0.907958984375,0.3936767578125,-0.0538330078125,-26.2451171875,-23.37646484375,-17.76123046875
20822.744881083,0.907958984375,0.3936767578125,-0.0703125,-26.2451171875,-23.37646484375,-17.76123046875
20822.744910375,0.907958984375,0.3936767578125,-0.0703125,-20.3857421875,-23.37646484375,-17.76123046875
20822.755095166,0.907958984375,0.3936767578125,-0.0703125,-20.3857421875,-23.37646484375,0.732421875
20822.800846666,0.9149169921875,0.3936767578125,-0.0703125,-20.3857421875,-23.37646484375,0.732421875
20822.830988166,0.9149169921875,0.3682861328125,-0.0703125,-20.3857421875,-23.37646484375,0.732421875
20822.831367,0.9149169921875,0.3682861328125,-0.082763671875,-20.3857421875,-23.37646484375,0.732421875
20822.831515583,0.9149169921875,0.3682861328125,-0.082763671875,-20.3857421875,4.94384765625,0.732421875
NEW_REP,,,,,,
20822.875246208,0.92822265625,0.3682861328125,-0.082763671875,-20.3857421875,4.94384765625,0.732421875
20822.875545041,0.92822265625,0.4134521484375,-0.082763671875,-20.3857421875,4.94384765625,0.732421875
20822.875837958,0.92822265625,0.4134521484375,-0.239501953125,-20.3857421875,4.94384765625,0.732421875
20822.876041833,0.92822265625,0.4134521484375,-0.239501953125,-20.3857421875,21.78955078125,0.732421875
20822.89501025,0.911865234375,0.4134521484375,-0.239501953125,-20.3857421875,21.78955078125,0.732421875
20822.895045,0.911865234375,0.5523681640625,-0.239501953125,-20.3857421875,21.78955078125,0.732421875
20822.89507325,0.911865234375,0.5523681640625,-0.4083251953125,-20.3857421875,21.78955078125,0.732421875
20822.904992,0.911865234375,0.5523681640625,-0.4083251953125,-20.3857421875,54.443359375,0.732421875
20822.905233,0.911865234375,0.5523681640625,-0.4083251953125,-20.3857421875,54.443359375,56.0302734375
20822.920225583,0.751708984375,0.5523681640625,-0.4083251953125,-20.3857421875,54.443359375,56.0302734375
20822.920490666,0.751708984375,0.80029296875,-0.4083251953125,-20.3857421875,54.443359375,56.0302734375
20822.920621166,0.751708984375,0.80029296875,-0.6702880859375,-20.3857421875,54.443359375,56.0302734375
20822.949928541,0.751708984375,0.80029296875,-0.6702880859375,-20.3857421875,69.51904296875,56.0302734375
20822.961581291,0.751708984375,0.80029296875,-0.6702880859375,-20.3857421875,69.51904296875,59.87548828125
20822.961861208,0.929443359375,0.80029296875,-0.6702880859375,-20.3857421875,69.51904296875,59.87548828125
20823.010623541,0.929443359375,0.80029296875,-0.7100830078125,-20.3857421875,69.51904296875,59.87548828125
20823.011194875,0.929443359375,0.80029296875,-0.7100830078125,-75.68359375,69.51904296875,59.87548828125
20823.011360416,0.929443359375,0.80029296875,-0.7100830078125,-75.68359375,105.712890625,59.87548828125
20823.0114815,0.9381103515625,0.80029296875,-0.7100830078125,-75.68359375,105.712890625,59.87548828125
20823.029107791,0.9381103515625,0.80029296875,-0.666748046875,-75.68359375,105.712890625,59.87548828125
20823.029202583,0.9381103515625,0.80029296875,-0.666748046875,-86.3037109375,105.712890625,59.87548828125
20823.029276416,0.9381103515625,0.80029296875,-0.666748046875,-86.3037109375,151.85546875,59.87548828125
20823.054987083,1.044189453125,0.80029296875,-0.666748046875,-86.3037109375,151.85546875,59.87548828125
20823.0552195,1.044189453125,0.921630859375,-0.666748046875,-86.3037109375,151.85546875,59.87548828125
20823.0613345,1.044189453125,0.921630859375,-1.122314453125,-86.3037109375,151.85546875,59.87548828125
20823.061369375,1.044189453125,0.921630859375,-1.122314453125,-67.7490234375,151.85546875,59.87548828125
20823.100791208,1.0537109375,0.921630859375,-1.122314453125,-67.7490234375,151.85546875,59.87548828125
20823.105500875,1.0537109375,0.8551025390625,-1.122314453125,-67.7490234375,151.85546875,59.87548828125
20823.105719583,1.0537109375,0.8551025390625,-1.06640625,-67.7490234375,151.85546875,59.87548828125
20823.105814583,1.0537109375,0.8551025390625,-1.06640625,-50.96435546875,151.85546875,59.87548828125
20823.130136041,0.9212646484375,0.8551025390625,-1.06640625,-50.96435546875,151.85546875,59.87548828125
20823.130347,0.9212646484375,0.8822021484375,-1.06640625,-50.96435546875,151.85546875,59.87548828125
20823.131400041,0.9212646484375,0.8822021484375,-1.1959228515625,-50.96435546875,151.85546875,59.87548828125
20823.144976458,0.9212646484375,0.8822021484375,-1.1959228515625,-50.96435546875,151.85546875,111.02294921875
20823.161628125,0.64990234375,0.8822021484375,-1.1959228515625,-50.96435546875,151.85546875,111.02294921875
20823.161664333,0.64990234375,0.529296875,-1.1959228515625,-50.96435546875,151.85546875,111.02294921875
20823.161694083,0.64990234375,0.529296875,-0.8956298828125,-50.96435546875,151.85546875,111.02294921875
20823.178204958,0.64990234375,0.529296875,-0.8956298828125,-50.96435546875,282.8369140625,111.02294921875
20823.178238583,0.64990234375,0.529296875,-0.8956298828125,-50.96435546875,282.8369140625,121.27685546875
20823.1946325,0.4927978515625,0.529296875,-0.8956298828125,-50.96435546875,282.8369140625,121.27685546875
20823.194667583,0.4927978515625,0.554443359375,-0.8956298828125,-50.96435546875,282.8369140625,121.27685546875
20823.194697333,0.4927978515625,0.554443359375,-0.8841552734375,-50.96435546875,282.8369140625,121.27685546875
20823.204934,0.4927978515625,0.554443359375,-0.8841552734375,-50.96435546875,276.18408203125,121.27685546875
20823.220475375,0.4927978515625,0.554443359375,-0.8841552734375,-50.96435546875,276.18408203125,115.78369140625
20823.220751791,0.3992919921875,0.554443359375,-0.8841552734375,-50.96435546875,276.18408203125,115.78369140625
20823.220888125,0.3992919921875,0.6341552734375,-0.8841552734375,-50.96435546875,276.18408203125,115.78369140625
20823.23519025,0.3992919921875,0.6341552734375,-0.85595703125,-50.96435546875,276.18408203125,115.78369140625
20823.235454875,0.3992919921875,0.6341552734375,-0.85595703125,-50.96435546875,268.73779296875,115.78369140625
20823.235588916,0.3992919921875,0.6341552734375,-0.85595703125,-50.96435546875,268.73779296875,108.09326171875
20823.264730333,0.1898193359375,0.6341552734375,-0.85595703125,-50.96435546875,268.73779296875,108.09326171875
20823.265723208,0.1898193359375,0.6126708984375,-0.85595703125,-50.96435546875,268.73779296875,108.09326171875
20823.265899791,0.1898193359375,0.6126708984375,-0.9268798828125,-50.96435546875,268.73779296875,108.09326171875
20823.280105,0.1898193359375,0.6126708984375,-0.9268798828125,-50.96435546875,266.11328125,108.09326171875
20823.280320583,0.1898193359375,0.6126708984375,-0.9268798828125,-50.96435546875,266.11328125,107.421875
20823.295462,0.061767578125,0.6126708984375,-0.9268798828125,-50.96435546875,266.11328125,107.421875
20823.295547583,0.061767578125,0.5299072265625,-0.9268798828125,-50.96435546875,266.11328125,107.421875
20823.296149708,0.061767578125,0.5299072265625,-0.8900146484375,-50.96435546875,266.11328125,107.421875
20823.311862791,0.061767578125,0.5299072265625,-0.8900146484375,-50.96435546875,270.751953125,107.421875
20823.311897541,0.061767578125,0.5299072265625,-0.8900146484375,-50.96435546875,270.751953125,110.3515625
20823.339096166,-0.10693359375,0.5299072265625,-0.8900146484375,-50.96435546875,270.751953125,110.3515625
20823.344693625,-0.10693359375,0.5045166015625,-0.8900146484375,-50.96435546875,270.751953125,110.3515625
20823.344727875,-0.10693359375,0.5045166015625,-0.501220703125,-50.96435546875,270.751953125,110.3515625
20823.344757916,-0.10693359375,0.5045166015625,-0.501220703125,-31.79931640625,270.751953125,110.3515625
20823.369915916,-0.1414794921875,0.5045166015625,-0.501220703125,-31.79931640625,270.751953125,110.3515625
20823.370136125,-0.1414794921875,0.39501953125,-0.501220703125,-31.79931640625,270.751953125,110.3515625
20823.370797333,-0.1414794921875,0.39501953125,-0.0911865234375,-31.79931640625,270.751953125,110.3515625
20823.371000416,-0.1414794921875,0.39501953125,-0.0911865234375,15.0146484375,270.751953125,110.3515625
20823.400147375,-0.220947265625,0.39501953125,-0.0911865234375,15.0146484375,270.751953125,110.3515625
20823.404732416,-0.220947265625,0.039794921875,-0.0911865234375,15.0146484375,270.751953125,110.3515625
20823.404832208,-0.220947265625,0.039794921875,0.2200927734375,15.0146484375,270.751953125,110.3515625
20823.430632666,-0.220947265625,0.039794921875,0.2200927734375,15.0146484375,219.970703125,110.3515625
20823.444895625,-0.220947265625,0.039794921875,0.2200927734375,15.0146484375,219.970703125,122.13134765625
20823.445176208,-0.3958740234375,0.039794921875,0.2200927734375,15.0146484375,219.970703125,122.13134765625
20823.445251041,-0.3958740234375,-0.2235107421875,0.2200927734375,15.0146484375,219.970703125,122.13134765625
20823.4463125,-0.3958740234375,-0.2235107421875,0.81982421875,15.0146484375,219.970703125,122.13134765625
20823.461815583,-0.3958740234375,-0.2235107421875,0.81982421875,15.0146484375,219.970703125,85.87646484375
20823.505122875,-0.5341796875,-0.2235107421875,0.81982421875,15.0146484375,219.970703125,85.87646484375
20823.505361333,-0.5341796875,-0.3929443359375,0.81982421875,15.0146484375,219.970703125,85.87646484375
20823.505851083,-0.5341796875,-0.3929443359375,0.65380859375,15.0146484375,219.970703125,85.87646484375
20823.506066791,-0.5341796875,-0.3929443359375,0.65380859375,42.29736328125,219.970703125,85.87646484375
20823.528173166,-0.5650634765625,-0.3929443359375,0.65380859375,42.29736328125,219.970703125,85.87646484375
20823.528206375,-0.5650634765625,-0.2559814453125,0.65380859375,42.29736328125,219.970703125,85.87646484375
20823.52823525,-0.5650634765625,-0.2559814453125,0.4605712890625,42.29736328125,219.970703125,85.87646484375
20823.535028791,-0.5650634765625,-0.2559814453125,0.4605712890625,42.29736328125,-87.158203125,85.87646484375
20823.535223375,-0.5650634765625,-0.2559814453125,0.4605712890625,42.29736328125,-87.158203125,-38.75732421875
20823.564864916,-0.61474609375,-0.2559814453125,0.4605712890625,42.29736328125,-87.158203125,-38.75732421875
20823.566367208,-0.61474609375,-0.074951171875,0.4605712890625,42.29736328125,-87.158203125,-38.75732421875
20823.566665208,-0.61474609375,-0.074951171875,0.1285400390625,42.29736328125,-87.158203125,-38.75732421875
20823.571394166,-0.61474609375,-0.074951171875,0.1285400390625,56.09130859375,-87.158203125,-38.75732421875
20823.59476825,-0.5390625,-0.074951171875,0.1285400390625,56.09130859375,-87.158203125,-38.75732421875
20823.594803833,-0.5390625,0.0447998046875,0.1285400390625,56.09130859375,-87.158203125,-38.75732421875
20823.595779333,-0.5390625,0.0447998046875,-0.075439453125,56.09130859375,-87.158203125,-38.75732421875
20823.595928958,-0.5390625,0.0447998046875,-0.075439453125,57.12890625,-87.158203125,-38.75732421875
20823.611802708,-0.4974365234375,0.0447998046875,-0.075439453125,57.12890625,-87.158203125,-38.75732421875
20823.611836625,-0.4974365234375,0.158203125,-0.075439453125,57.12890625,-87.158203125,-38.75732421875
20823.611866208,-0.4974365234375,0.158203125,-0.1842041015625,57.12890625,-87.158203125,-38.75732421875
20823.639826125,-0.4974365234375,0.158203125,-0.1842041015625,57.12890625,-185.85205078125,-38.75732421875
20823.63994575,-0.4974365234375,0.158203125,-0.1842041015625,57.12890625,-185.85205078125,-142.51708984375
20823.661667958,-0.340087890625,0.158203125,-0.1842041015625,57.12890625,-185.85205078125,-142.51708984375
20823.661752333,-0.340087890625,0.248779296875,-0.1842041015625,57.12890625,-185.85205078125,-142.51708984375
20823.661825958,-0.340087890625,0.248779296875,-0.3408203125,57.12890625,-185.85205078125,-142.51708984375
20823.7312895,-0.2220458984375,0.248779296875,-0.3408203125,57.12890625,-185.85205078125,-142.51708984375
20823.731896125,-0.2220458984375,0.4678955078125,-0.3408203125,57.12890625,-185.85205078125,-142.51708984375
20823.732133291,-0.2220458984375,0.4678955078125,-0.594970703125,57.12890625,-185.85205078125,-142.51708984375
20823.732285208,-0.2220458984375,0.4678955078125,-0.594970703125,-13.61083984375,-185.85205078125,-142.51708984375
20823.745224916,-0.1236572265625,0.4678955078125,-0.594970703125,-13.61083984375,-185.85205078125,-142.51708984375
20823.745551583,-0.1236572265625,0.70068359375,-0.594970703125,-13.61083984375,-185.85205078125,-142.51708984375
20823.74565,-0.1236572265625,0.70068359375,-0.720458984375,-13.61083984375,-185.85205078125,-142.51708984375
20823.761801416,-0.1236572265625,0.70068359375,-0.720458984375,-13.61083984375,-207.45849609375,-142.51708984375
20823.761837916,-0.1236572265625,0.70068359375,-0.720458984375,-13.61083984375,-207.45849609375,-143.24951171875
20823.790446625,0.29345703125,0.70068359375,-0.720458984375,-13.61083984375,-207.45849609375,-143.24951171875
20823.790712791,0.29345703125,0.8067626953125,-0.720458984375,-13.61083984375,-207.45849609375,-143.24951171875
20823.791212166,0.29345703125,0.8067626953125,-1.0767822265625,-13.61083984375,-207.45849609375,-143.24951171875
20823.791506333,0.29345703125,0.8067626953125,-1.0767822265625,-30.21240234375,-207.45849609375,-143.24951171875
20823.819119916,0.317138671875,0.8067626953125,-1.0767822265625,-30.21240234375,-207.45849609375,-143.24951171875
20823.820968875,0.317138671875,0.7650146484375,-1.0767822265625,-30.21240234375,-207.45849609375,-143.24951171875
20823.821163416,0.317138671875,0.7650146484375,-0.9588623046875,-30.21240234375,-207.45849609375,-143.24951171875
20823.850013458,0.317138671875,0.7650146484375,-0.9588623046875,-30.21240234375,-202.33154296875,-143.24951171875
20823.8544515,0.317138671875,0.7650146484375,-0.9588623046875,-30.21240234375,-202.33154296875,-84.89990234375
20823.86534675,0.4432373046875,0.7650146484375,-0.9588623046875,-30.21240234375,-202.33154296875,-84.89990234375
20823.878348583,0.4432373046875,0.733642578125,-0.9588623046875,-30.21240234375,-202.33154296875,-84.89990234375
20823.87843225,0.4432373046875,0.733642578125,-1.0303955078125,-30.21240234375,-202.33154296875,-84.89990234375
20823.89508325,0.5623779296875,0.733642578125,-1.0303955078125,-30.21240234375,-202.33154296875,-84.89990234375
20823.895115125,0.5623779296875,0.7274169921875,-1.0303955078125,-30.21240234375,-202.33154296875,-84.89990234375
20823.895535208,0.5623779296875,0.7274169921875,-0.943115234375,-30.21240234375,-202.33154296875,-84.89990234375
20823.89556525,0.5623779296875,0.7274169921875,-0.943115234375,-1.15966796875,-202.33154296875,-84.89990234375
20823.925109875,0.5128173828125,0.7274169921875,-0.943115234375,-1.15966796875,-202.33154296875,-84.89990234375
20823.925345708,0.5128173828125,0.724853515625,-0.943115234375,-1.15966796875,-202.33154296875,-84.89990234375
20823.925801416,0.5128173828125,0.724853515625,-0.86181640625,-1.15966796875,-202.33154296875,-84.89990234375
20823.926030083,0.5128173828125,0.724853515625,-0.86181640625,13.85498046875,-202.33154296875,-84.89990234375
20823.9449045,0.5931396484375,0.724853515625,-0.86181640625,13.85498046875,-202.33154296875,-84.89990234375
20823.944940875,0.5931396484375,0.68603515625,-0.86181640625,13.85498046875,-202.33154296875,-84.89990234375
20823.944970875,0.5931396484375,0.68603515625,-0.8603515625,13.85498046875,-202.33154296875,-84.89990234375
20823.954995666,0.5931396484375,0.68603515625,-0.8603515625,13.85498046875,-177.978515625,-84.89990234375
20823.961715208,0.5931396484375,0.68603515625,-0.8603515625,13.85498046875,-177.978515625,-51.7578125
20824.000371416,0.7607421875,0.68603515625,-0.8603515625,13.85498046875,-177.978515625,-51.7578125
20824.00484875,0.7607421875,0.5830078125,-0.8603515625,13.85498046875,-177.978515625,-51.7578125
20824.030226833,0.7607421875,0.5830078125,-0.9315185546875,13.85498046875,-177.978515625,-51.7578125
20824.030445958,0.7607421875,0.5830078125,-0.9315185546875,38.6962890625,-177.978515625,-51.7578125
20824.045059,0.8109130859375,0.5830078125,-0.9315185546875,38.6962890625,-177.978515625,-51.7578125
20824.045143958,0.8109130859375,0.50390625,-0.9315185546875,38.6962890625,-177.978515625,-51.7578125
20824.045219,0.8109130859375,0.50390625,-0.9315185546875,-10.6201171875,-177.978515625,-51.7578125
20824.045445708,0.8109130859375,0.50390625,-0.9315185546875,-10.6201171875,-176.513671875,-51.7578125
20824.04558525,0.8109130859375,0.50390625,-0.9315185546875,-10.6201171875,-176.513671875,-36.7431640625
20824.07524525,0.7252197265625,0.50390625,-0.9315185546875,-10.6201171875,-176.513671875,-36.7431640625
20824.075479916,0.7252197265625,0.647705078125,-0.9315185546875,-10.6201171875,-176.513671875,-36.7431640625
20824.076115708,0.7252197265625,0.647705078125,-0.6636962890625,-10.6201171875,-176.513671875,-36.7431640625
20824.076301041,0.7252197265625,0.647705078125,-0.6636962890625,-32.04345703125,-176.513671875,-36.7431640625
20824.094916875,0.7427978515625,0.647705078125,-0.6636962890625,-32.04345703125,-176.513671875,-36.7431640625
20824.1054485,0.7427978515625,0.52099609375,-0.6636962890625,-32.04345703125,-176.513671875,-36.7431640625
20824.111639458,0.7427978515625,0.52099609375,-0.68017578125,-32.04345703125,-176.513671875,-36.7431640625
20824.111719208,0.7427978515625,0.52099609375,-0.68017578125,-32.04345703125,-126.52587890625,-36.7431640625
20824.1117515,0.7427978515625,0.52099609375,-0.68017578125,-32.04345703125,-126.52587890625,-32.77587890625
20824.120066041,0.8350830078125,0.52099609375,-0.68017578125,-32.04345703125,-126.52587890625,-32.77587890625
20824.120345791,0.8350830078125,0.518310546875,-0.68017578125,-32.04345703125,-126.52587890625,-32.77587890625
20824.120493,0.8350830078125,0.518310546875,-0.5272216796875,-32.04345703125,-126.52587890625,-32.77587890625
20824.149895125,0.8350830078125,0.518310546875,-0.5272216796875,-32.04345703125,-119.68994140625,-32.77587890625
20824.150124958,0.8350830078125,0.518310546875,-0.5272216796875,-32.04345703125,-119.68994140625,-43.5791015625
20824.154807541,0.9561767578125,0.518310546875,-0.5272216796875,-32.04345703125,-119.68994140625,-43.5791015625
20824.164991166,0.9561767578125,0.518310546875,-0.49755859375,-32.04345703125,-119.68994140625,-43.5791015625
20824.170052458,0.9561767578125,0.518310546875,-0.49755859375,36.68212890625,-119.68994140625,-43.5791015625
20824.194693416,0.9561767578125,0.518310546875,-0.49755859375,36.68212890625,-112.6708984375,-43.5791015625
20824.212283208,0.97509765625,0.518310546875,-0.49755859375,36.68212890625,-112.6708984375,-43.5791015625
20824.212373208,0.97509765625,0.3388671875,-0.49755859375,36.68212890625,-112.6708984375,-43.5791015625
20824.212449166,0.97509765625,0.3388671875,-0.507080078125,36.68212890625,-112.6708984375,-43.5791015625
20824.227964583,0.97509765625,0.3388671875,-0.507080078125,36.68212890625,-105.04150390625,-43.5791015625
20824.228047708,0.97509765625,0.3388671875,-0.507080078125,36.68212890625,-105.04150390625,-41.32080078125
20824.244609833,0.9395751953125,0.3388671875,-0.507080078125,36.68212890625,-105.04150390625,-41.32080078125
20824.27055475,0.9395751953125,0.4732666015625,-0.507080078125,36.68212890625,-105.04150390625,-41.32080078125
20824.270814583,0.9395751953125,0.4732666015625,-0.279052734375,36.68212890625,-105.04150390625,-41.32080078125
20824.271038583,0.9395751953125,0.4732666015625,-0.279052734375,36.68212890625,-81.35986328125,-41.32080078125
20824.299301166,0.9395751953125,0.4732666015625,-0.279052734375,36.68212890625,-81.35986328125,-37.7197265625
20824.303777208,0.9599609375,0.4732666015625,-0.279052734375,36.68212890625,-81.35986328125,-37.7197265625
20824.30388775,0.9599609375,0.3590087890625,-0.279052734375,36.68212890625,-81.35986328125,-37.7197265625
20824.303975916,0.9599609375,0.3590087890625,-0.3638916015625,36.68212890625,-81.35986328125,-37.7197265625
20824.345779333,0.9599609375,0.3590087890625,-0.3638916015625,36.68212890625,-81.35986328125,-34.24072265625
20824.346426166,0.8895263671875,0.3590087890625,-0.3638916015625,36.68212890625,-81.35986328125,-34.24072265625
20824.346697708,0.8895263671875,0.37158203125,-0.3638916015625,36.68212890625,-81.35986328125,-34.24072265625
20824.346804291,0.8895263671875,0.37158203125,-0.32080078125,36.68212890625,-81.35986328125,-34.24072265625
NEW_REP,,,,,,
20824.378778125,0.8895263671875,0.37158203125,-0.32080078125,36.68212890625,-81.35986328125,-15.0146484375
20824.394748916,0.8555908203125,0.37158203125,-0.32080078125,36.68212890625,-81.35986328125,-15.0146484375
20824.394785666,0.8555908203125,0.5699462890625,-0.32080078125,36.68212890625,-81.35986328125,-15.0146484375
20824.394816875,0.8555908203125,0.5699462890625,-0.569580078125,36.68212890625,-81.35986328125,-15.0146484375
20824.394847166,0.8555908203125,0.5699462890625,-0.569580078125,10.986328125,-81.35986328125,-15.0146484375
20824.420015958,0.9232177734375,0.5699462890625,-0.569580078125,10.986328125,-81.35986328125,-15.0146484375
20824.420207916,0.9232177734375,0.3677978515625,-0.569580078125,10.986328125,-81.35986328125,-15.0146484375
20824.420793916,0.9232177734375,0.3677978515625,-0.4857177734375,10.986328125,-81.35986328125,-15.0146484375
20824.420986625,0.9232177734375,0.3677978515625,-0.4857177734375,10.986328125,6.34765625,-15.0146484375
20824.44903425,0.880615234375,0.3677978515625,-0.4857177734375,10.986328125,6.34765625,-15.0146484375
20824.479839541,0.880615234375,0.4866943359375,-0.4857177734375,10.986328125,6.34765625,-15.0146484375
20824.480046,0.880615234375,0.4866943359375,-0.4346923828125,10.986328125,6.34765625,-15.0146484375
20824.509912666,0.880615234375,0.4866943359375,-0.4346923828125,10.986328125,40.83251953125,-15.0146484375
20824.51016275,0.8966064453125,0.4866943359375,-0.4346923828125,10.986328125,40.83251953125,-15.0146484375
20824.511039666,0.8966064453125,0.4866943359375,-0.58203125,10.986328125,40.83251953125,-15.0146484375
20824.511262,0.8966064453125,0.4866943359375,-0.58203125,-13.61083984375,40.83251953125,-15.0146484375
20824.530043583,0.9462890625,0.4866943359375,-0.58203125,-13.61083984375,40.83251953125,-15.0146484375
20824.530150333,0.9462890625,0.4432373046875,-0.58203125,-13.61083984375,40.83251953125,-15.0146484375
20824.530240791,0.9462890625,0.4432373046875,-0.583984375,-13.61083984375,40.83251953125,-15.0146484375
20824.540163958,0.9462890625,0.4432373046875,-0.583984375,-13.61083984375,118.408203125,-15.0146484375
20824.54661025,0.9462890625,0.4432373046875,-0.583984375,-13.61083984375,118.408203125,43.212890625
20824.569979708,1.0057373046875,0.4432373046875,-0.583984375,-13.61083984375,118.408203125,43.212890625
20824.570190666,1.0057373046875,0.523681640625,-0.583984375,-13.61083984375,118.408203125,43.212890625
20824.570859083,1.0057373046875,0.523681640625,-0.75048828125,-13.61083984375,118.408203125,43.212890625
20824.571054666,1.0057373046875,0.523681640625,-0.75048828125,-39.9169921875,118.408203125,43.212890625
20824.600709333,1.0302734375,0.523681640625,-0.75048828125,-39.9169921875,118.408203125,43.212890625
20824.600933833,1.0302734375,0.515380859375,-0.75048828125,-39.9169921875,118.408203125,43.212890625
20824.605678666,1.0302734375,0.515380859375,-0.7611083984375,-39.9169921875,118.408203125,43.212890625
20824.675114125,1.0302734375,0.515380859375,-0.7611083984375,-39.9169921875,175.1708984375,43.212890625
20824.676028958,1.0302734375,0.515380859375,-0.7611083984375,-39.9169921875,175.1708984375,55.5419921875
20824.676475541,1.017822265625,0.515380859375,-0.7611083984375,-39.9169921875,175.1708984375,55.5419921875
20824.676709875,1.017822265625,0.515380859375,-0.845458984375,-39.9169921875,175.1708984375,55.5419921875
20824.69597575,1.017822265625,0.515380859375,-0.845458984375,-39.9169921875,200.86669921875,55.5419921875
20824.696064,1.017822265625,0.515380859375,-0.845458984375,-39.9169921875,200.86669921875,52.24609375
20824.72022775,0.845703125,0.515380859375,-0.845458984375,-39.9169921875,200.86669921875,52.24609375
20824.720407,0.845703125,0.52294921875,-0.845458984375,-39.9169921875,200.86669921875,52.24609375
20824.721052833,0.845703125,0.52294921875,-0.9696044921875,-39.9169921875,200.86669921875,52.24609375
20824.735096916,0.845703125,0.52294921875,-0.9696044921875,-32.958984375,200.86669921875,52.24609375
20824.735282833,0.76513671875,0.52294921875,-0.9696044921875,-32.958984375,200.86669921875,52.24609375
20824.736651,0.76513671875,0.47802734375,-0.9696044921875,-32.958984375,200.86669921875,52.24609375
20824.736825666,0.76513671875,0.47802734375,-1.0064697265625,-32.958984375,200.86669921875,52.24609375
20824.749770625,0.76513671875,0.47802734375,-1.0064697265625,-32.958984375,232.0556640625,52.24609375
20824.74980375,0.76513671875,0.47802734375,-1.0064697265625,-32.958984375,232.0556640625,41.9921875
20824.779162,0.647216796875,0.47802734375,-1.0064697265625,-32.958984375,232.0556640625,41.9921875
20824.780613125,0.647216796875,0.514892578125,-1.0064697265625,-32.958984375,232.0556640625,41.9921875
20824.780756875,0.647216796875,0.514892578125,-0.9520263671875,-32.958984375,232.0556640625,41.9921875
20824.780838333,0.647216796875,0.514892578125,-0.9520263671875,-18.00537109375,232.0556640625,41.9921875
20824.794920375,0.5347900390625,0.514892578125,-0.9520263671875,-18.00537109375,232.0556640625,41.9921875
20824.7950845,0.5347900390625,0.4110107421875,-0.9520263671875,-18.00537109375,232.0556640625,41.9921875
20824.795172166,0.5347900390625,0.4110107421875,-0.967529296875,-18.00537109375,232.0556640625,41.9921875
20824.81165975,0.5347900390625,0.4110107421875,-0.967529296875,-18.00537109375,231.62841796875,41.9921875
20824.811722458,0.5347900390625,0.4110107421875,-0.967529296875,-18.00537109375,231.62841796875,38.4521484375
20824.82803725,0.358154296875,0.4110107421875,-0.967529296875,-18.00537109375,231.62841796875,38.4521484375
20824.828098208,0.358154296875,0.3583984375,-0.967529296875,-18.00537109375,231.62841796875,38.4521484375
20824.828151166,0.358154296875,0.3583984375,-0.8958740234375,-18.00537109375,231.62841796875,38.4521484375
20824.8451735,0.358154296875,0.3583984375,-0.8958740234375,-18.00537109375,225.15869140625,38.4521484375
20824.845244708,0.358154296875,0.3583984375,-0.8958740234375,-18.00537109375,225.15869140625,34.85107421875
20824.854870166,0.2738037109375,0.3583984375,-0.8958740234375,-18.00537109375,225.15869140625,34.85107421875
20824.855063458,0.2738037109375,0.3646240234375,-0.8958740234375,-18.00537109375,225.15869140625,34.85107421875
20824.855173,0.2738037109375,0.3646240234375,-0.83203125,-18.00537109375,225.15869140625,34.85107421875
20824.929977166,0.2738037109375,0.3646240234375,-0.83203125,-18.00537109375,216.61376953125,34.85107421875
20824.944954208,0.2738037109375,0.3646240234375,-0.83203125,-18.00537109375,216.61376953125,32.65380859375
20824.945102666,0.141845703125,0.3646240234375,-0.83203125,-18.00537109375,216.61376953125,32.65380859375
20824.946597,0.141845703125,0.294921875,-0.83203125,-18.00537109375,216.61376953125,32.65380859375
20824.946714416,0.141845703125,0.294921875,-0.83203125,-18.00537109375,202.45361328125,32.65380859375
20824.961985875,-0.0721435546875,0.294921875,-0.83203125,-18.00537109375,202.45361328125,32.65380859375
20824.962042791,-0.0721435546875,0.184814453125,-0.83203125,-18.00537109375,202.45361328125,32.65380859375
20824.962097208,-0.0721435546875,0.184814453125,-1.1348876953125,-18.00537109375,202.45361328125,32.65380859375
20824.97831975,-0.0721435546875,0.184814453125,-1.1348876953125,-18.00537109375,182.92236328125,32.65380859375
20824.978395333,-0.0721435546875,0.184814453125,-1.1348876953125,-18.00537109375,182.92236328125,18.6767578125
20824.99430075,-0.19189453125,0.184814453125,-1.1348876953125,-18.00537109375,182.92236328125,18.6767578125
20824.99434875,-0.19189453125,0.2508544921875,-1.1348876953125,-18.00537109375,182.92236328125,18.6767578125
20824.994390666,-0.19189453125,0.2508544921875,-1.0408935546875,-18.00537109375,182.92236328125,18.6767578125
20825.005421541,-0.19189453125,0.2508544921875,-1.0408935546875,-18.00537109375,184.63134765625,18.6767578125
20825.011085291,-0.19189453125,0.2508544921875,-1.0408935546875,-18.00537109375,184.63134765625,10.498046875
20825.02024425,-0.419677734375,0.2508544921875,-1.0408935546875,-18.00537109375,184.63134765625,10.498046875
20825.020512541,-0.419677734375,0.6005859375,-1.0408935546875,-18.00537109375,184.63134765625,10.498046875
20825.020656666,-0.419677734375,0.6005859375,-0.71875,-18.00537109375,184.63134765625,10.498046875
20825.035230875,-0.419677734375,0.6005859375,-0.71875,-18.00537109375,207.09228515625,10.498046875
20825.035373375,-0.419677734375,0.6005859375,-0.71875,-18.00537109375,207.09228515625,12.02392578125
20825.081141791,-0.558837890625,0.6005859375,-0.71875,-18.00537109375,207.09228515625,12.02392578125
20825.081748708,-0.558837890625,0.3818359375,-0.71875,-18.00537109375,207.09228515625,12.02392578125
20825.082041666,-0.558837890625,0.3818359375,-0.223388671875,-18.00537109375,207.09228515625,12.02392578125
20825.082147291,-0.558837890625,0.3818359375,-0.223388671875,38.9404296875,207.09228515625,12.02392578125
20825.111867,-0.6119384765625,0.3818359375,-0.223388671875,38.9404296875,207.09228515625,12.02392578125
20825.111952875,-0.6119384765625,0.0137939453125,-0.223388671875,38.9404296875,207.09228515625,12.02392578125
20825.112026791,-0.6119384765625,0.0137939453125,0.167236328125,38.9404296875,207.09228515625,12.02392578125
20825.12926975,-0.6119384765625,0.0137939453125,0.167236328125,38.9404296875,179.62646484375,12.02392578125
20825.129347791,-0.6119384765625,0.0137939453125,0.167236328125,38.9404296875,179.62646484375,33.99658203125
20825.140174083,-0.6397705078125,0.0137939453125,0.167236328125,38.9404296875,179.62646484375,33.99658203125
20825.145565625,-0.6397705078125,0.0955810546875,0.167236328125,38.9404296875,179.62646484375,33.99658203125
20825.145675166,-0.6397705078125,0.0955810546875,0.7720947265625,38.9404296875,179.62646484375,33.99658203125
20825.154894791,-0.6397705078125,0.0955810546875,0.7720947265625,38.9404296875,62.68310546875,33.99658203125
20825.155050166,-0.6397705078125,0.0955810546875,0.7720947265625,38.9404296875,62.68310546875,7.568359375
20825.170194208,-0.6541748046875,0.0955810546875,0.7720947265625,38.9404296875,62.68310546875,7.568359375
20825.170416083,-0.6541748046875,0.0533447265625,0.7720947265625,38.9404296875,62.68310546875,7.568359375
20825.170489916,-0.6541748046875,0.0533447265625,0.501953125,38.9404296875,62.68310546875,7.568359375
20825.200372166,-0.6541748046875,0.0533447265625,0.501953125,38.9404296875,-17.88330078125,7.568359375
20825.212265583,-0.6541748046875,0.0533447265625,0.501953125,38.9404296875,-17.88330078125,-13.916015625
20825.212506416,-0.6890869140625,0.0533447265625,0.501953125,38.9404296875,-17.88330078125,-13.916015625
20825.23029,-0.6890869140625,0.0533447265625,0.2308349609375,38.9404296875,-17.88330078125,-13.916015625
20825.230391125,-0.6890869140625,0.0533447265625,0.2308349609375,68.84765625,-17.88330078125,-13.916015625
20825.230571041,-0.6890869140625,0.0533447265625,0.2308349609375,68.84765625,-72.08251953125,-13.916015625
20825.245515458,-0.7249755859375,0.0533447265625,0.2308349609375,68.84765625,-72.08251953125,-13.916015625
20825.245602333,-0.7249755859375,0.248046875,0.2308349609375,68.84765625,-72.08251953125,-13.916015625
20825.246156125,-0.7249755859375,0.248046875,-0.0130615234375,68.84765625,-72.08251953125,-13.916015625
20825.26217475,-0.7249755859375,0.248046875,-0.0130615234375,68.84765625,-120.361328125,-13.916015625
20825.262255666,-0.7249755859375,0.248046875,-0.0130615234375,68.84765625,-120.361328125,-30.3955078125
20825.290178541,-0.5751953125,0.248046875,-0.0130615234375,68.84765625,-120.361328125,-30.3955078125
20825.290263666,-0.5751953125,0.1729736328125,-0.0130615234375,68.84765625,-120.361328125,-30.3955078125
20825.290956166,-0.5751953125,0.1729736328125,-0.293701171875,68.84765625,-120.361328125,-30.3955078125
20825.291119708,-0.5751953125,0.1729736328125,-0.293701171875,68.78662109375,-120.361328125,-30.3955078125
20825.319248791,-0.508544921875,0.1729736328125,-0.293701171875,68.78662109375,-120.361328125,-30.3955078125
20825.320739916,-0.508544921875,0.1890869140625,-0.293701171875,68.78662109375,-120.361328125,-30.3955078125
20825.320932625,-0.508544921875,0.1890869140625,-0.42138671875,68.78662109375,-120.361328125,-30.3955078125
20825.321005291,-0.508544921875,0.1890869140625,-0.42138671875,61.09619140625,-120.361328125,-30.3955078125
20825.335553875,-0.43310546875,0.1890869140625,-0.42138671875,61.09619140625,-120.361328125,-30.3955078125
20825.335757666,-0.43310546875,0.185302734375,-0.42138671875,61.09619140625,-120.361328125,-30.3955078125
20825.335872833,-0.43310546875,0.185302734375,-0.4649658203125,61.09619140625,-120.361328125,-30.3955078125
20825.350178458,-0.43310546875,0.185302734375,-0.4649658203125,61.09619140625,-201.96533203125,-30.3955078125
20825.350355833,-0.43310546875,0.185302734375,-0.4649658203125,61.09619140625,-201.96533203125,-57.6171875
20825.37939525,-0.18896484375,0.185302734375,-0.4649658203125,61.09619140625,-201.96533203125,-57.6171875
20825.38115125,-0.18896484375,0.4161376953125,-0.4649658203125,61.09619140625,-201.96533203125,-57.6171875
20825.381384666,-0.18896484375,0.4161376953125,-0.900390625,61.09619140625,-201.96533203125,-57.6171875
20825.381533583,-0.18896484375,0.4161376953125,-0.900390625,-10.009765625,-201.96533203125,-57.6171875
20825.395653541,-0.171875,0.4161376953125,-0.900390625,-10.009765625,-201.96533203125,-57.6171875
20825.395730041,-0.171875,0.495361328125,-0.900390625,-10.009765625,-201.96533203125,-57.6171875
20825.395794166,-0.171875,0.495361328125,-0.847412109375,-10.009765625,-201.96533203125,-57.6171875
20825.412560208,-0.171875,0.495361328125,-0.847412109375,-10.009765625,-198.54736328125,-57.6171875
20825.412640291,-0.171875,0.495361328125,-0.847412109375,-10.009765625,-198.54736328125,-48.583984375
20825.429110041,-0.06201171875,0.495361328125,-0.847412109375,-10.009765625,-198.54736328125,-48.583984375
20825.429190916,-0.06201171875,0.387939453125,-0.847412109375,-10.009765625,-198.54736328125,-48.583984375
20825.429262666,-0.06201171875,0.387939453125,-0.7371826171875,-10.009765625,-198.54736328125,-48.583984375
20825.439962041,-0.06201171875,0.387939453125,-0.7371826171875,-10.009765625,-193.4814453125,-48.583984375
20825.445410583,-0.06201171875,0.387939453125,-0.7371826171875,-10.009765625,-193.4814453125,-45.5322265625
20825.454998583,0.0924072265625,0.387939453125,-0.7371826171875,-10.009765625,-193.4814453125,-45.5322265625
20825.455243375,0.0924072265625,0.5123291015625,-0.7371826171875,-10.009765625,-193.4814453125,-45.5322265625
20825.45534375,0.0924072265625,0.5123291015625,-1.0841064453125,-10.009765625,-193.4814453125,-45.5322265625
20825.470062708,0.0924072265625,0.5123291015625,-1.0841064453125,-10.009765625,-188.4765625,-45.5322265625
20825.470288416,0.0924072265625,0.5123291015625,-1.0841064453125,-10.009765625,-188.4765625,-39.794921875
20825.545956708,0.1495361328125,0.5123291015625,-1.0841064453125,-10.009765625,-188.4765625,-39.794921875
20825.560291958,0.1495361328125,0.522705078125,-1.0841064453125,-10.009765625,-188.4765625,-39.794921875
20825.560806458,0.1495361328125,0.522705078125,-0.9754638671875,-10.009765625,-188.4765625,-39.794921875
20825.560979875,0.1495361328125,0.522705078125,-0.9754638671875,-10.009765625,-183.59375,-39.794921875
20825.5906145,0.4881591796875,0.522705078125,-0.9754638671875,-10.009765625,-183.59375,-39.794921875
20825.590885291,0.4881591796875,0.5062255859375,-0.9754638671875,-10.009765625,-183.59375,-39.794921875
20825.591256416,0.4881591796875,0.5062255859375,-0.888427734375,-10.009765625,-183.59375,-39.794921875
20825.591481916,0.4881591796875,0.5062255859375,-0.888427734375,22.39990234375,-183.59375,-39.794921875
20825.6191945,0.4600830078125,0.5062255859375,-0.888427734375,22.39990234375,-183.59375,-39.794921875
20825.620423458,0.4600830078125,0.5596923828125,-0.888427734375,22.39990234375,-183.59375,-39.794921875
20825.635689666,0.4600830078125,0.5596923828125,-0.7906494140625,22.39990234375,-183.59375,-39.794921875
20825.636003583,0.4600830078125,0.5596923828125,-0.7906494140625,32.16552734375,-183.59375,-39.794921875
20825.63614775,0.5892333984375,0.5596923828125,-0.7906494140625,32.16552734375,-183.59375,-39.794921875
20825.636330416,0.5892333984375,0.4849853515625,-0.7906494140625,32.16552734375,-183.59375,-39.794921875
20825.649988416,0.5892333984375,0.4849853515625,-0.7906494140625,32.16552734375,-171.69189453125,-39.794921875
20825.665164833,0.5892333984375,0.4849853515625,-0.7906494140625,32.16552734375,-171.69189453125,-34.0576171875
20825.680163458,0.6885986328125,0.4849853515625,-0.7906494140625,32.16552734375,-171.69189453125,-34.0576171875
20825.680417375,0.6885986328125,0.50634765625,-0.7906494140625,32.16552734375,-171.69189453125,-34.0576171875
20825.6805105,0.6885986328125,0.50634765625,-0.8203125,32.16552734375,-171.69189453125,-34.0576171875
20825.696171083,0.6885986328125,0.50634765625,-0.8203125,32.16552734375,-170.8984375,-34.0576171875
20825.696271541,0.6885986328125,0.50634765625,-0.8203125,32.16552734375,-170.8984375,-43.5791015625
20825.739615125,0.8250732421875,0.50634765625,-0.8203125,32.16552734375,-170.8984375,-43.5791015625
20825.740900416,0.8250732421875,0.5474853515625,-0.8203125,32.16552734375,-170.8984375,-43.5791015625
20825.7411525,0.8250732421875,0.5474853515625,-0.80908203125,32.16552734375,-170.8984375,-43.5791015625
20825.741303,0.8250732421875,0.5474853515625,-0.80908203125,15.869140625,-170.8984375,-43.5791015625
20825.755254041,0.8709716796875,0.5474853515625,-0.80908203125,15.869140625,-170.8984375,-43.5791015625
20825.75552125,0.8709716796875,0.48583984375,-0.80908203125,15.869140625,-170.8984375,-43.5791015625
20825.755661458,0.8709716796875,0.48583984375,-0.7235107421875,15.869140625,-170.8984375,-43.5791015625
20825.770141791,0.8709716796875,0.48583984375,-0.7235107421875,15.869140625,-163.87939453125,-43.5791015625
20825.770317125,0.8709716796875,0.48583984375,-0.7235107421875,15.869140625,-163.87939453125,-40.46630859375
20825.800545208,0.9241943359375,0.48583984375,-0.7235107421875,15.869140625,-163.87939453125,-40.46630859375
20825.8443115,0.9241943359375,0.47314453125,-0.7235107421875,15.869140625,-163.87939453125,-40.46630859375
20825.848970041,0.9241943359375,0.47314453125,-0.62646484375,15.869140625,-163.87939453125,-40.46630859375
20825.849073041,0.9241943359375,0.47314453125,-0.62646484375,15.869140625,-149.96337890625,-40.46630859375
20825.84917175,0.9241943359375,0.47314453125,-0.62646484375,15.869140625,-149.96337890625,-41.6259765625
20825.879128083,0.9241943359375,0.4976806640625,-0.62646484375,15.869140625,-149.96337890625,-41.6259765625
20825.879215,0.9241943359375,0.4976806640625,-0.55224609375,15.869140625,-149.96337890625,-41.6259765625
20825.879299416,0.9241943359375,0.4976806640625,-0.55224609375,23.3154296875,-149.96337890625,-41.6259765625
20825.895939416,0.9241943359375,0.4976806640625,-0.55224609375,23.3154296875,-149.96337890625,-41.3818359375
20825.896020166,0.9891357421875,0.4976806640625,-0.55224609375,23.3154296875,-149.96337890625,-41.3818359375
20825.896091916,0.9891357421875,0.4239501953125,-0.55224609375,23.3154296875,-149.96337890625,-41.3818359375
20825.896163791,0.9891357421875,0.4239501953125,-0.4520263671875,23.3154296875,-149.96337890625,-41.3818359375
20825.905241708,0.9891357421875,0.4239501953125,-0.4520263671875,23.3154296875,-114.80712890625,-41.3818359375
20825.9054285,0.9891357421875,0.4239501953125,-0.4520263671875,23.3154296875,-114.80712890625,-39.0625
20825.920262166,0.941162109375,0.4239501953125,-0.4520263671875,23.3154296875,-114.80712890625,-39.0625
20825.92049525,0.941162109375,0.3734130859375,-0.4520263671875,23.3154296875,-114.80712890625,-39.0625
20825.920614333,0.941162109375,0.3734130859375,-0.4156494140625,23.3154296875,-114.80712890625,-39.0625
20825.94934675,0.941162109375,0.3734130859375,-0.4156494140625,23.3154296875,-96.3134765625,-39.0625
20825.978247666,0.941162109375,0.3734130859375,-0.4156494140625,23.3154296875,-96.3134765625,-30.57861328125
20825.978308541,0.9228515625,0.3734130859375,-0.4156494140625,23.3154296875,-96.3134765625,-30.57861328125
20825.978362583,0.9228515625,0.3734130859375,-0.433349609375,23.3154296875,-96.3134765625,-30.57861328125
20825.978414875,0.9228515625,0.3734130859375,-0.433349609375,-1.46484375,-96.3134765625,-30.57861328125
20825.994553333,0.9228515625,0.3734130859375,-0.433349609375,-1.46484375,-96.3134765625,-26.55029296875
20826.011163958,0.8984375,0.3734130859375,-0.433349609375,-1.46484375,-96.3134765625,-26.55029296875
20826.011228625,0.8984375,0.4093017578125,-0.433349609375,-1.46484375,-96.3134765625,-26.55029296875
20826.011369625,0.8984375,0.4093017578125,-0.5255126953125,-1.46484375,-96.3134765625,-26.55029296875
20826.028094833,0.8984375,0.4093017578125,-0.5255126953125,-1.46484375,-65.24658203125,-26.55029296875
20826.028157208,0.8984375,0.4093017578125,-0.5255126953125,-1.46484375,-65.24658203125,-22.216796875
20826.044771416,0.8638916015625,0.4093017578125,-0.5255126953125,-1.46484375,-65.24658203125,-22.216796875
20826.044830333,0.8638916015625,0.4676513671875,-0.5255126953125,-1.46484375,-65.24658203125,-22.216796875
20826.04488675,0.8638916015625,0.4676513671875,-0.35546875,-1.46484375,-65.24658203125,-22.216796875
20826.0548335,0.8638916015625,0.4676513671875,-0.35546875,-1.46484375,-32.470703125,-22.216796875
20826.069894916,0.8638916015625,0.4676513671875,-0.35546875,-1.46484375,-32.470703125,-9.1552734375
20826.100505375,0.9075927734375,0.4676513671875,-0.35546875,-1.46484375,-32.470703125,-9.1552734375
20826.103625125,0.9075927734375,0.398681640625,-0.35546875,-1.46484375,-32.470703125,-9.1552734375
20826.103872833,0.9075927734375,0.398681640625,-0.4705810546875,-1.46484375,-32.470703125,-9.1552734375
20826.103939833,0.9075927734375,0.398681640625,-0.4705810546875,-1.46484375,-2.62451171875,-9.1552734375
NEW_REP,,,,,,
20826.130066125,0.913330078125,0.398681640625,-0.4705810546875,-1.46484375,-2.62451171875,-9.1552734375
20826.13022775,0.913330078125,0.39697265625,-0.4705810546875,-1.46484375,-2.62451171875,-9.1552734375
20826.130281208,0.913330078125,0.39697265625,-0.47021484375,-1.46484375,-2.62451171875,-9.1552734375
20826.145063333,0.913330078125,0.39697265625,-0.47021484375,-1.46484375,15.80810546875,-9.1552734375
20826.145126,0.913330078125,0.39697265625,-0.47021484375,-1.46484375,15.80810546875,7.75146484375
20826.174751,0.9246826171875,0.39697265625,-0.47021484375,-1.46484375,15.80810546875,7.75146484375
20826.176142,0.9246826171875,0.4119873046875,-0.47021484375,-1.46484375,15.80810546875,7.75146484375
20826.17625275,0.9246826171875,0.4119873046875,-0.5179443359375,-1.46484375,15.80810546875,7.75146484375
20826.190206125,0.9246826171875,0.4119873046875,-0.5179443359375,-1.46484375,66.34521484375,7.75146484375
20826.190431791,0.9246826171875,0.4119873046875,-0.5179443359375,-1.46484375,66.34521484375,28.99169921875
20826.220227416,0.941650390625,0.4119873046875,-0.5179443359375,-1.46484375,66.34521484375,28.99169921875
20826.220400083,0.941650390625,0.4703369140625,-0.5179443359375,-1.46484375,66.34521484375,28.99169921875
20826.220743625,0.941650390625,0.4703369140625,-0.635986328125,-1.46484375,66.34521484375,28.99169921875
20826.220874791,0.941650390625,0.4703369140625,-0.635986328125,-23.62060546875,66.34521484375,28.99169921875
20826.235145708,0.9725341796875,0.4703369140625,-0.635986328125,-23.62060546875,66.34521484375,28.99169921875
20826.235339583,0.9725341796875,0.4705810546875,-0.635986328125,-23.62060546875,66.34521484375,28.99169921875
20826.23540275,0.9725341796875,0.4705810546875,-0.70947265625,-23.62060546875,66.34521484375,28.99169921875
20826.250113625,0.9725341796875,0.4705810546875,-0.70947265625,-23.62060546875,132.2021484375,28.99169921875
20826.250268458,0.9725341796875,0.4705810546875,-0.70947265625,-23.62060546875,132.2021484375,50.84228515625
20826.264895166,1.0355224609375,0.4705810546875,-0.70947265625,-23.62060546875,132.2021484375,50.84228515625
20826.294915166,1.0355224609375,0.5447998046875,-0.70947265625,-23.62060546875,132.2021484375,50.84228515625
20826.295061833,1.0355224609375,0.5447998046875,-0.7186279296875,-23.62060546875,132.2021484375,50.84228515625
20826.295846541,1.0355224609375,0.5447998046875,-0.7186279296875,-23.62060546875,154.9072265625,50.84228515625
20826.29600425,1.0355224609375,0.5447998046875,-0.7186279296875,-23.62060546875,154.9072265625,54.3212890625
20826.311992416,1.0355224609375,0.5654296875,-0.7186279296875,-23.62060546875,154.9072265625,54.3212890625
20826.312056041,1.0355224609375,0.5654296875,-0.8623046875,-23.62060546875,154.9072265625,54.3212890625
20826.312108666,1.0355224609375,0.5654296875,-0.8623046875,-66.650390625,154.9072265625,54.3212890625
20826.328811958,1.0355224609375,0.5654296875,-0.8623046875,-66.650390625,154.9072265625,57.18994140625
20826.354198791,1.000732421875,0.5654296875,-0.8623046875,-66.650390625,154.9072265625,57.18994140625
20826.361996875,1.000732421875,0.638671875,-0.8623046875,-66.650390625,154.9072265625,57.18994140625
20826.362069458,1.000732421875,0.638671875,-0.9793701171875,-66.650390625,154.9072265625,57.18994140625
20826.362141541,1.000732421875,0.638671875,-0.9793701171875,-66.650390625,212.95166015625,57.18994140625
20826.430229791,0.9869384765625,0.638671875,-0.9793701171875,-66.650390625,212.95166015625,57.18994140625
20826.445297166,0.9869384765625,0.599365234375,-0.9793701171875,-66.650390625,212.95166015625,57.18994140625
20826.4455715,0.9869384765625,0.599365234375,-0.98486328125,-66.650390625,212.95166015625,57.18994140625
20826.44570975,0.9869384765625,0.599365234375,-0.98486328125,-66.650390625,227.5390625,57.18994140625
20826.462558166,0.7952880859375,0.599365234375,-0.98486328125,-66.650390625,227.5390625,57.18994140625
20826.462641041,0.7952880859375,0.4915771484375,-0.98486328125,-66.650390625,227.5390625,57.18994140625
20826.462713166,0.7952880859375,0.4915771484375,-1.1380615234375,-66.650390625,227.5390625,57.18994140625
20826.490120833,0.7952880859375,0.4915771484375,-1.1380615234375,-66.650390625,227.5390625,57.31201171875
20826.495871875,0.5382080078125,0.4915771484375,-1.1380615234375,-66.650390625,227.5390625,57.31201171875
20826.496122458,0.5382080078125,0.4873046875,-1.1380615234375,-66.650390625,227.5390625,57.31201171875
20826.496195166,0.5382080078125,0.4873046875,-1.0885009765625,-66.650390625,227.5390625,57.31201171875
20826.520029916,0.5382080078125,0.4873046875,-1.0885009765625,-66.650390625,268.61572265625,57.31201171875
20826.520236916,0.5382080078125,0.4873046875,-1.0885009765625,-66.650390625,268.61572265625,51.6357421875
20826.535299916,0.3214111328125,0.4873046875,-1.0885009765625,-66.650390625,268.61572265625,51.6357421875
20826.535422708,0.3214111328125,0.3741455078125,-1.0885009765625,-66.650390625,268.61572265625,51.6357421875
20826.564980416,0.3214111328125,0.3741455078125,-1.0570068359375,-66.650390625,268.61572265625,51.6357421875
20826.566425291,0.2501220703125,0.3741455078125,-1.0570068359375,-66.650390625,268.61572265625,51.6357421875
20826.566649666,0.2501220703125,0.323974609375,-1.0570068359375,-66.650390625,268.61572265625,51.6357421875
20826.566772708,0.2501220703125,0.323974609375,-0.9920654296875,-66.650390625,268.61572265625,51.6357421875
20826.58034775,0.2501220703125,0.323974609375,-0.9920654296875,-66.650390625,268.61572265625,41.68701171875
20826.610625125,-0.0338134765625,0.323974609375,-0.9920654296875,-66.650390625,268.61572265625,41.68701171875
20826.611105333,-0.0338134765625,0.4735107421875,-0.9920654296875,-66.650390625,268.61572265625,41.68701171875
20826.611270541,-0.0338134765625,0.4735107421875,-0.7314453125,-66.650390625,268.61572265625,41.68701171875
20826.611383666,-0.0338134765625,0.4735107421875,-0.7314453125,-66.58935546875,268.61572265625,41.68701171875
20826.640601166,-0.085693359375,0.4735107421875,-0.7314453125,-66.58935546875,268.61572265625,41.68701171875
20826.640956541,-0.085693359375,0.2384033203125,-0.7314453125,-66.58935546875,268.61572265625,41.68701171875
20826.641105041,-0.085693359375,0.2384033203125,-0.66552734375,-66.58935546875,268.61572265625,41.68701171875
20826.641300333,-0.085693359375,0.2384033203125,-0.66552734375,-17.4560546875,268.61572265625,41.68701171875
20826.663357666,-0.0999755859375,0.2384033203125,-0.66552734375,-17.4560546875,268.61572265625,41.68701171875
20826.66346675,-0.0999755859375,0.026123046875,-0.66552734375,-17.4560546875,268.61572265625,41.68701171875
20826.663568791,-0.0999755859375,0.026123046875,-0.4830322265625,-17.4560546875,268.61572265625,41.68701171875
20826.670180041,-0.0999755859375,0.026123046875,-0.4830322265625,-17.4560546875,245.78857421875,41.68701171875
20826.670399958,-0.0999755859375,0.026123046875,-0.4830322265625,-17.4560546875,245.78857421875,51.20849609375
20826.701163541,-0.268798828125,0.026123046875,-0.4830322265625,-17.4560546875,245.78857421875,51.20849609375
20826.701464291,-0.268798828125,0.084228515625,-0.4830322265625,-17.4560546875,245.78857421875,51.20849609375
20826.705898666,-0.268798828125,0.084228515625,-0.253173828125,-17.4560546875,245.78857421875,51.20849609375
20826.730528333,-0.268798828125,0.084228515625,-0.253173828125,-17.4560546875,223.57177734375,51.20849609375
20826.730816708,-0.268798828125,0.084228515625,-0.253173828125,-17.4560546875,223.57177734375,40.4052734375
20826.745961541,-0.400390625,0.084228515625,-0.253173828125,-17.4560546875,223.57177734375,40.4052734375
20826.74605625,-0.400390625,0.0252685546875,-0.253173828125,-17.4560546875,223.57177734375,40.4052734375
20826.746396958,-0.400390625,0.0252685546875,0.20068359375,-17.4560546875,223.57177734375,40.4052734375
20826.762955583,-0.400390625,0.0252685546875,0.20068359375,-17.4560546875,223.57177734375,36.92626953125
20826.790299333,-0.4705810546875,0.0252685546875,0.20068359375,-17.4560546875,223.57177734375,36.92626953125
20826.7958625,-0.4705810546875,-0.18505859375,0.20068359375,-17.4560546875,223.57177734375,36.92626953125
20826.796137875,-0.4705810546875,-0.18505859375,0.5655517578125,-17.4560546875,223.57177734375,36.92626953125
20826.796211583,-0.4705810546875,-0.18505859375,0.5655517578125,18.12744140625,223.57177734375,36.92626953125
20826.81936825,-0.549560546875,-0.18505859375,0.5655517578125,18.12744140625,223.57177734375,36.92626953125
20826.820786875,-0.549560546875,-0.0677490234375,0.5655517578125,18.12744140625,223.57177734375,36.92626953125
20826.821053791,-0.549560546875,-0.0677490234375,0.58935546875,18.12744140625,223.57177734375,36.92626953125
20826.821187375,-0.549560546875,-0.0677490234375,0.58935546875,21.728515625,223.57177734375,36.92626953125
20826.835512083,-0.5657958984375,-0.0677490234375,0.58935546875,21.728515625,223.57177734375,36.92626953125
20826.83563875,-0.5657958984375,-0.0655517578125,0.58935546875,21.728515625,223.57177734375,36.92626953125
20826.836631083,-0.5657958984375,-0.0655517578125,0.447509765625,21.728515625,223.57177734375,36.92626953125
20826.850130375,-0.5657958984375,-0.0655517578125,0.447509765625,21.728515625,-88.56201171875,36.92626953125
20826.850337333,-0.5657958984375,-0.0655517578125,0.447509765625,21.728515625,-88.56201171875,-15.7470703125
20826.88020325,-0.6212158203125,-0.0655517578125,0.447509765625,21.728515625,-88.56201171875,-15.7470703125
20826.880418833,-0.6212158203125,-0.03466796875,0.447509765625,21.728515625,-88.56201171875,-15.7470703125
20826.881042708,-0.6212158203125,-0.03466796875,0.1533203125,21.728515625,-88.56201171875,-15.7470703125
20826.881229958,-0.6212158203125,-0.03466796875,0.1533203125,41.3818359375,-88.56201171875,-15.7470703125
20826.89642025,-0.5960693359375,-0.03466796875,0.1533203125,41.3818359375,-88.56201171875,-15.7470703125
20826.896503958,-0.5960693359375,0.0667724609375,0.1533203125,41.3818359375,-88.56201171875,-15.7470703125
20826.896577625,-0.5960693359375,0.0667724609375,0.051513671875,41.3818359375,-88.56201171875,-15.7470703125
20826.913071916,-0.5960693359375,0.0667724609375,0.051513671875,41.3818359375,-196.35009765625,-15.7470703125
20826.913159416,-0.5960693359375,0.0667724609375,0.051513671875,41.3818359375,-196.35009765625,-50.84228515625
20826.929966708,-0.4974365234375,0.0667724609375,0.051513671875,41.3818359375,-196.35009765625,-50.84228515625
20826.93007075,-0.4974365234375,0.0684814453125,0.051513671875,41.3818359375,-196.35009765625,-50.84228515625
20826.930160416,-0.4974365234375,0.0684814453125,-0.1719970703125,41.3818359375,-196.35009765625,-50.84228515625
20826.94025275,-0.4974365234375,0.0684814453125,-0.1719970703125,41.3818359375,-218.75,-50.84228515625
20826.946384083,-0.4974365234375,0.0684814453125,-0.1719970703125,41.3818359375,-218.75,-63.3544921875
20826.9550125,-0.4012451171875,0.0684814453125,-0.1719970703125,41.3818359375,-218.75,-63.3544921875
20826.955273833,-0.4012451171875,0.1339111328125,-0.1719970703125,41.3818359375,-218.75,-63.3544921875
20826.955410791,-0.4012451171875,0.1339111328125,-0.4547119140625,41.3818359375,-218.75,-63.3544921875
20826.970200083,-0.4012451171875,0.1339111328125,-0.4547119140625,41.3818359375,-231.93359375,-63.3544921875
20826.970424333,-0.4012451171875,0.1339111328125,-0.4547119140625,41.3818359375,-231.93359375,-78.91845703125
20827.00034,-0.30908203125,0.1339111328125,-0.4547119140625,41.3818359375,-231.93359375,-78.91845703125
20827.000569958,-0.30908203125,0.2989501953125,-0.4547119140625,41.3818359375,-231.93359375,-78.91845703125
20827.005068291,-0.30908203125,0.2989501953125,-0.6104736328125,41.3818359375,-231.93359375,-78.91845703125
20827.030319625,-0.30908203125,0.2989501953125,-0.6104736328125,41.3818359375,-236.572265625,-78.91845703125
20827.030553416,-0.30908203125,0.2989501953125,-0.6104736328125,41.3818359375,-236.572265625,-83.49609375
20827.045661666,-0.035400390625,0.2989501953125,-0.6104736328125,41.3818359375,-236.572265625,-83.49609375
20827.062532875,-0.035400390625,0.0797119140625,-0.6104736328125,41.3818359375,-236.572265625,-83.49609375
20827.090128875,-0.035400390625,0.0797119140625,-1.0823974609375,41.3818359375,-236.572265625,-83.49609375
20827.091610125,-0.035400390625,0.0797119140625,-1.0823974609375,41.3818359375,-236.572265625,-86.24267578125
20827.091911333,0.1116943359375,0.0797119140625,-1.0823974609375,41.3818359375,-236.572265625,-86.24267578125
20827.092027,0.1116943359375,0.0797119140625,-1.136474609375,41.3818359375,-236.572265625,-86.24267578125
20827.105433875,0.1116943359375,0.0797119140625,-1.136474609375,41.3818359375,-206.0546875,-86.24267578125
20827.105532166,0.1116943359375,0.0797119140625,-1.136474609375,41.3818359375,-206.0546875,-32.40966796875
20827.134547375,0.2779541015625,0.0797119140625,-1.136474609375,41.3818359375,-206.0546875,-32.40966796875
20827.13653425,0.2779541015625,-0.1009521484375,-1.136474609375,41.3818359375,-206.0546875,-32.40966796875
20827.136709333,0.2779541015625,-0.1009521484375,-1.23681640625,41.3818359375,-206.0546875,-32.40966796875
20827.150293541,0.2779541015625,-0.1009521484375,-1.23681640625,92.83447265625,-206.0546875,-32.40966796875
20827.150487416,0.3619384765625,-0.1009521484375,-1.23681640625,92.83447265625,-206.0546875,-32.40966796875
20827.180117041,0.3619384765625,0.3482666015625,-1.23681640625,92.83447265625,-206.0546875,-32.40966796875
20827.180319166,0.3619384765625,0.3482666015625,-1.04443359375,92.83447265625,-206.0546875,-32.40966796875
20827.18093025,0.3619384765625,0.3482666015625,-1.04443359375,92.83447265625,-177.30712890625,-32.40966796875
20827.181103125,0.3619384765625,0.3482666015625,-1.04443359375,92.83447265625,-177.30712890625,-46.81396484375
20827.195871583,0.4739990234375,0.3482666015625,-1.04443359375,92.83447265625,-177.30712890625,-46.81396484375
20827.195973291,0.4739990234375,0.4490966796875,-1.04443359375,92.83447265625,-177.30712890625,-46.81396484375
20827.224541625,0.4739990234375,0.4490966796875,-1.1927490234375,92.83447265625,-177.30712890625,-46.81396484375
20827.240401166,0.4739990234375,0.4490966796875,-1.1927490234375,92.83447265625,-177.30712890625,-29.296875
20827.240660666,0.5338134765625,0.4490966796875,-1.1927490234375,92.83447265625,-177.30712890625,-29.296875
20827.240792583,0.5338134765625,0.3455810546875,-1.1927490234375,92.83447265625,-177.30712890625,-29.296875
20827.241180291,0.5338134765625,0.3455810546875,-1.1837158203125,92.83447265625,-177.30712890625,-29.296875
20827.262629416,0.5338134765625,0.3455810546875,-1.1837158203125,92.83447265625,-177.30712890625,-26.9775390625
20827.346642875,0.466796875,0.3455810546875,-1.1837158203125,92.83447265625,-177.30712890625,-26.9775390625
20827.354499916,0.466796875,0.5318603515625,-1.1837158203125,92.83447265625,-177.30712890625,-26.9775390625
20827.354611708,0.466796875,0.5318603515625,-0.9986572265625,92.83447265625,-177.30712890625,-26.9775390625
20827.354760375,0.466796875,0.5318603515625,-0.9986572265625,117.61474609375,-177.30712890625,-26.9775390625
