Timestamp,Accel_X,Accel_Y,Accel_Z,Gyro_X,Gyro_Y,Gyro_Z
24721.123538875,-0.0733642578125,0.0,0.0,0.0,0.0,0.0
24721.14391475,-0.0765380859375,0.0,0.0,0.0,0.0,0.0
24721.169256166,-0.0728759765625,0.0,0.0,0.0,0.0,0.0
24721.182365958,-0.0728759765625,0.3006591796875,0.0,0.0,0.0,0.0
24721.1824735,-0.0723876953125,0.3006591796875,0.0,0.0,0.0,0.0
24721.183352083,-0.0723876953125,0.301025390625,0.0,0.0,0.0,0.0
24721.213466166,-0.0780029296875,0.301025390625,0.0,0.0,0.0,0.0
24721.213575416,-0.0780029296875,0.2994384765625,0.0,0.0,0.0,0.0
24721.213638416,-0.0780029296875,0.2994384765625,-0.9639892578125,0.0,0.0,0.0
24721.229362666,-0.07763671875,0.2994384765625,-0.9639892578125,0.0,0.0,0.0
24721.229549708,-0.07763671875,0.3004150390625,-0.9639892578125,0.0,0.0,0.0
24721.22970225,-0.07763671875,0.3004150390625,-0.9620361328125,0.0,0.0,0.0
24721.257736583,-0.0748291015625,0.3004150390625,-0.9620361328125,0.0,0.0,0.0
24721.257815375,-0.0748291015625,0.2982177734375,-0.9620361328125,0.0,0.0,0.0
24721.258203875,-0.0748291015625,0.2982177734375,-0.9588623046875,0.0,0.0,0.0
24721.277057791,-0.0740966796875,0.2982177734375,-0.9588623046875,0.0,0.0,0.0
24721.277104166,-0.0740966796875,0.3001708984375,-0.9588623046875,0.0,0.0,0.0
24721.277136833,-0.0740966796875,0.3001708984375,-0.9622802734375,0.0,0.0,0.0
24721.303796458,-0.0732421875,0.3001708984375,-0.9622802734375,0.0,0.0,0.0
24721.310479875,-0.0732421875,0.2974853515625,-0.9622802734375,0.0,0.0,0.0
24721.310527166,-0.0732421875,0.2974853515625,-0.958251953125,0.0,0.0,0.0
24721.318393666,-0.0732421875,0.2974853515625,-0.958251953125,1.77001953125,0.0,0.0
24721.318488458,-0.0732421875,0.2974853515625,-0.958251953125,1.77001953125,-0.48828125,0.0
24721.347237333,-0.0772705078125,0.2974853515625,-0.958251953125,1.77001953125,-0.48828125,0.0
24721.347969791,-0.0772705078125,0.298828125,-0.958251953125,1.77001953125,-0.48828125,0.0
24721.348038375,-0.0772705078125,0.298828125,-0.9541015625,1.77001953125,-0.48828125,0.0
24721.3625085,-0.0797119140625,0.298828125,-0.9541015625,1.77001953125,-0.48828125,0.0
24721.362797375,-0.0797119140625,0.2979736328125,-0.9541015625,1.77001953125,-0.48828125,0.0
24721.364170208,-0.0797119140625,0.2979736328125,-0.9578857421875,1.77001953125,-0.48828125,0.0
24721.377268416,-0.0797119140625,0.2979736328125,-0.9578857421875,1.77001953125,-0.42724609375,0.0
24721.377355,-0.0797119140625,0.2979736328125,-0.9578857421875,1.77001953125,-0.42724609375,2.01416015625
24721.393027666,-0.0758056640625,0.2979736328125,-0.9578857421875,1.77001953125,-0.42724609375,2.01416015625
24721.393066791,-0.0758056640625,0.3017578125,-0.9578857421875,1.77001953125,-0.42724609375,2.01416015625
24721.393102083,-0.0758056640625,0.3017578125,-0.9586181640625,1.77001953125,-0.42724609375,2.01416015625
24721.409940291,-0.0758056640625,0.3017578125,-0.9586181640625,1.77001953125,-1.03759765625,2.01416015625
24721.409983916,-0.0758056640625,0.3017578125,-0.9586181640625,1.77001953125,-1.03759765625,2.25830078125
24721.42617575,-0.0682373046875,0.3017578125,-0.9586181640625,1.77001953125,-1.03759765625,2.25830078125
24721.426213041,-0.0682373046875,0.301025390625,-0.9586181640625,1.77001953125,-1.03759765625,2.25830078125
24721.43702575,-0.0682373046875,0.301025390625,-0.957763671875,1.77001953125,-1.03759765625,2.25830078125
24721.44330025,-0.0682373046875,0.301025390625,-0.957763671875,1.77001953125,-0.732421875,2.25830078125
24721.452143791,-0.0682373046875,0.301025390625,-0.957763671875,1.77001953125,-0.732421875,2.44140625
24721.452246583,-0.072265625,0.301025390625,-0.957763671875,1.77001953125,-0.732421875,2.44140625
24721.453076708,-0.072265625,0.3004150390625,-0.957763671875,1.77001953125,-0.732421875,2.44140625
24721.453176875,-0.072265625,0.3004150390625,-0.953125,1.77001953125,-0.732421875,2.44140625
24721.467618791,-0.072265625,0.3004150390625,-0.953125,1.77001953125,-0.42724609375,2.44140625
24721.467718833,-0.072265625,0.3004150390625,-0.953125,1.77001953125,-0.42724609375,2.9296875
24721.497104958,-0.0767822265625,0.3004150390625,-0.953125,1.77001953125,-0.42724609375,2.9296875
24721.497208083,-0.0767822265625,0.302734375,-0.953125,1.77001953125,-0.42724609375,2.9296875
24721.509636291,-0.0767822265625,0.302734375,-0.940185546875,1.77001953125,-0.42724609375,2.9296875
24721.509675416,-0.0767822265625,0.302734375,-0.940185546875,2.74658203125,-0.42724609375,2.9296875
24721.542002875,-0.075439453125,0.302734375,-0.940185546875,2.74658203125,-0.42724609375,2.9296875
24721.542087208,-0.075439453125,0.30859375,-0.940185546875,2.74658203125,-0.42724609375,2.9296875
24721.543902666,-0.075439453125,0.30859375,-0.9256591796875,2.74658203125,-0.42724609375,2.9296875
24721.559895875,-0.075439453125,0.30859375,-0.9256591796875,2.74658203125,-3.0517578125,2.9296875
24721.559938791,-0.075439453125,0.30859375,-0.9256591796875,2.74658203125,-3.0517578125,2.50244140625
24721.587124083,-0.0474853515625,0.30859375,-0.9256591796875,2.74658203125,-3.0517578125,2.50244140625
24721.592967625,-0.0474853515625,0.300537109375,-0.9256591796875,2.74658203125,-3.0517578125,2.50244140625
24721.59303325,-0.0474853515625,0.300537109375,-0.862060546875,2.74658203125,-3.0517578125,2.50244140625
24721.593069041,-0.0474853515625,0.300537109375,-0.862060546875,1.89208984375,-3.0517578125,2.50244140625
24721.601988041,-0.0389404296875,0.300537109375,-0.862060546875,1.89208984375,-3.0517578125,2.50244140625
24721.602057666,-0.0389404296875,0.273681640625,-0.862060546875,1.89208984375,-3.0517578125,2.50244140625
24721.602875916,-0.0389404296875,0.273681640625,-0.79248046875,1.89208984375,-3.0517578125,2.50244140625
24721.617634791,-0.0389404296875,0.273681640625,-0.79248046875,1.89208984375,-13.3056640625,2.50244140625
24721.617711708,-0.0389404296875,0.273681640625,-0.79248046875,1.89208984375,-13.3056640625,1.708984375
24721.63202675,-0.015625,0.273681640625,-0.79248046875,1.89208984375,-13.3056640625,1.708984375
24721.632106708,-0.015625,0.2696533203125,-0.79248046875,1.89208984375,-13.3056640625,1.708984375
24721.646797375,-0.015625,0.2696533203125,-0.7718505859375,1.89208984375,-13.3056640625,1.708984375
24721.646900125,-0.015625,0.2696533203125,-0.7718505859375,1.89208984375,-21.42333984375,1.708984375
24721.648069125,-0.015625,0.2696533203125,-0.7718505859375,1.89208984375,-21.42333984375,-0.42724609375
24721.677517083,0.0206298828125,0.2696533203125,-0.7718505859375,1.89208984375,-21.42333984375,-0.42724609375
24721.6776305,0.0206298828125,0.27978515625,-0.7718505859375,1.89208984375,-21.42333984375,-0.42724609375
24721.677694375,0.0206298828125,0.27978515625,-0.713623046875,1.89208984375,-21.42333984375,-0.42724609375
24721.678427541,0.0206298828125,0.27978515625,-0.713623046875,1.89208984375,-34.3017578125,-0.42724609375
24721.752165916,0.0589599609375,0.27978515625,-0.713623046875,1.89208984375,-34.3017578125,-0.42724609375
24721.752269916,0.0589599609375,0.333984375,-0.713623046875,1.89208984375,-34.3017578125,-0.42724609375
24721.753098333,0.0589599609375,0.333984375,-0.673828125,1.89208984375,-34.3017578125,-0.42724609375
24721.754953875,0.0589599609375,0.333984375,-0.673828125,25.69580078125,-34.3017578125,-0.42724609375
24721.776491208,0.1055908203125,0.333984375,-0.673828125,25.69580078125,-34.3017578125,-0.42724609375
24721.776538291,0.1055908203125,0.3255615234375,-0.673828125,25.69580078125,-34.3017578125,-0.42724609375
24721.776581625,0.1055908203125,0.3255615234375,-0.730224609375,25.69580078125,-34.3017578125,-0.42724609375
24721.782437166,0.1055908203125,0.3255615234375,-0.730224609375,25.69580078125,-54.62646484375,-0.42724609375
24721.782534916,0.1055908203125,0.3255615234375,-0.730224609375,25.69580078125,-54.62646484375,-11.962890625
24721.8271465,0.2630615234375,0.3255615234375,-0.730224609375,25.69580078125,-54.62646484375,-11.962890625
24721.827294,0.2630615234375,0.4063720703125,-0.730224609375,25.69580078125,-54.62646484375,-11.962890625
24721.828085666,0.2630615234375,0.4063720703125,-0.7774658203125,25.69580078125,-54.62646484375,-11.962890625
24721.841868291,0.2630615234375,0.4063720703125,-0.7774658203125,-5.67626953125,-54.62646484375,-11.962890625
24721.842081875,0.2994384765625,0.4063720703125,-0.7774658203125,-5.67626953125,-54.62646484375,-11.962890625
24721.860411666,0.2994384765625,0.4090576171875,-0.7774658203125,-5.67626953125,-54.62646484375,-11.962890625
24721.860473833,0.2994384765625,0.4090576171875,-0.8671875,-5.67626953125,-54.62646484375,-11.962890625
24721.877386458,0.2994384765625,0.4090576171875,-0.8671875,-5.67626953125,-79.89501953125,-11.962890625
24721.877462958,0.2994384765625,0.4090576171875,-0.8671875,-5.67626953125,-79.89501953125,-13.48876953125
24721.902267125,0.3763427734375,0.4090576171875,-0.8671875,-5.67626953125,-79.89501953125,-13.48876953125
24721.902402,0.3763427734375,0.3245849609375,-0.8671875,-5.67626953125,-79.89501953125,-13.48876953125
24721.910246875,0.3763427734375,0.3245849609375,-0.765625,-5.67626953125,-79.89501953125,-13.48876953125
24721.917084375,0.4317626953125,0.3245849609375,-0.765625,-5.67626953125,-79.89501953125,-13.48876953125
24721.917192583,0.4317626953125,0.38330078125,-0.765625,-5.67626953125,-79.89501953125,-13.48876953125
24721.917957041,0.4317626953125,0.38330078125,-0.6917724609375,-5.67626953125,-79.89501953125,-13.48876953125
24721.932434458,0.4317626953125,0.38330078125,-0.6917724609375,-5.67626953125,-79.89501953125,-28.6865234375
24721.96254175,0.58251953125,0.38330078125,-0.6917724609375,-5.67626953125,-79.89501953125,-28.6865234375
24721.962672,0.58251953125,0.3145751953125,-0.6917724609375,-5.67626953125,-79.89501953125,-28.6865234375
24721.962873166,0.58251953125,0.3145751953125,-0.7498779296875,-5.67626953125,-79.89501953125,-28.6865234375
24721.9630275,0.58251953125,0.3145751953125,-0.7498779296875,36.56005859375,-79.89501953125,-28.6865234375
24721.977158916,0.6693115234375,0.3145751953125,-0.7498779296875,36.56005859375,-79.89501953125,-28.6865234375
24721.977221375,0.6693115234375,0.3692626953125,-0.7498779296875,36.56005859375,-79.89501953125,-28.6865234375
24721.978100458,0.6693115234375,0.3692626953125,-0.7000732421875,36.56005859375,-79.89501953125,-28.6865234375
24721.993950916,0.6693115234375,0.3692626953125,-0.7000732421875,36.56005859375,-122.74169921875,-28.6865234375
24721.994009916,0.6693115234375,0.3692626953125,-0.7000732421875,36.56005859375,-122.74169921875,-42.48046875
24722.010888166,0.7557373046875,0.3692626953125,-0.7000732421875,36.56005859375,-122.74169921875,-42.48046875
24722.01096175,0.7557373046875,0.4385986328125,-0.7000732421875,36.56005859375,-122.74169921875,-42.48046875
24722.011016208,0.7557373046875,0.4385986328125,-0.61669921875,36.56005859375,-122.74169921875,-42.48046875
24722.026956166,0.7557373046875,0.4385986328125,-0.61669921875,36.56005859375,-126.89208984375,-42.48046875
24722.02701175,0.7557373046875,0.4385986328125,-0.61669921875,36.56005859375,-126.89208984375,-45.5322265625
24722.037037708,0.86669921875,0.4385986328125,-0.61669921875,36.56005859375,-126.89208984375,-45.5322265625
24722.043214666,0.86669921875,0.315673828125,-0.61669921875,36.56005859375,-126.89208984375,-45.5322265625
24722.043329458,0.86669921875,0.315673828125,-0.7078857421875,36.56005859375,-126.89208984375,-45.5322265625
24722.052178291,0.86669921875,0.315673828125,-0.7078857421875,36.56005859375,-128.96728515625,-45.5322265625
24722.052263541,0.86669921875,0.315673828125,-0.7078857421875,36.56005859375,-128.96728515625,-49.74365234375
24722.068069458,0.8985595703125,0.315673828125,-0.7078857421875,36.56005859375,-128.96728515625,-49.74365234375
24722.068189791,0.8985595703125,0.372802734375,-0.7078857421875,36.56005859375,-128.96728515625,-49.74365234375
24722.068233916,0.8985595703125,0.372802734375,-0.6456298828125,36.56005859375,-128.96728515625,-49.74365234375
24722.082632958,0.8985595703125,0.372802734375,-0.6456298828125,36.56005859375,-133.9111328125,-49.74365234375
24722.082722375,0.8985595703125,0.372802734375,-0.6456298828125,36.56005859375,-133.9111328125,-51.025390625
24722.096942958,0.9722900390625,0.372802734375,-0.6456298828125,36.56005859375,-133.9111328125,-51.025390625
24722.097033583,0.9722900390625,0.421875,-0.6456298828125,36.56005859375,-133.9111328125,-51.025390625
24722.097808791,0.9722900390625,0.421875,-0.5938720703125,36.56005859375,-133.9111328125,-51.025390625
24722.112320083,0.9722900390625,0.421875,-0.5938720703125,36.56005859375,-137.02392578125,-51.025390625
24722.112443,0.9722900390625,0.421875,-0.5938720703125,36.56005859375,-137.02392578125,-46.2646484375
24722.142231083,1.0220947265625,0.421875,-0.5938720703125,36.56005859375,-137.02392578125,-46.2646484375
24722.142331416,1.0220947265625,0.3583984375,-0.5938720703125,36.56005859375,-137.02392578125,-46.2646484375
24722.143473125,1.0220947265625,0.3583984375,-0.599609375,36.56005859375,-137.02392578125,-46.2646484375
24722.157245583,1.0220947265625,0.3583984375,-0.599609375,36.56005859375,-134.3994140625,-46.2646484375
24722.157352166,1.0220947265625,0.3583984375,-0.599609375,36.56005859375,-134.3994140625,-39.6728515625
24722.234278916,1.04541015625,0.3583984375,-0.599609375,36.56005859375,-134.3994140625,-39.6728515625
24722.2344885,1.04541015625,0.3927001953125,-0.599609375,36.56005859375,-134.3994140625,-39.6728515625
24722.2345435,1.04541015625,0.3927001953125,-0.570556640625,36.56005859375,-134.3994140625,-39.6728515625
24722.234626875,1.04541015625,0.3927001953125,-0.570556640625,-17.76123046875,-134.3994140625,-39.6728515625
24722.262630458,1.056396484375,0.3927001953125,-0.570556640625,-17.76123046875,-134.3994140625,-39.6728515625
24722.262729875,1.056396484375,0.41748046875,-0.570556640625,-17.76123046875,-134.3994140625,-39.6728515625
24722.2630425,1.056396484375,0.41748046875,-0.5279541015625,-17.76123046875,-134.3994140625,-39.6728515625
24722.263142041,1.056396484375,0.41748046875,-0.5279541015625,-17.76123046875,-118.83544921875,-39.6728515625
24722.291915291,0.9576416015625,0.41748046875,-0.5279541015625,-17.76123046875,-118.83544921875,-39.6728515625
24722.29200175,0.9576416015625,0.3160400390625,-0.5279541015625,-17.76123046875,-118.83544921875,-39.6728515625
24722.293651666,0.9576416015625,0.3160400390625,-0.4127197265625,-17.76123046875,-118.83544921875,-39.6728515625
24722.307355333,0.9576416015625,0.3160400390625,-0.4127197265625,-17.76123046875,-80.078125,-39.6728515625
24722.307441625,0.9576416015625,0.3160400390625,-0.4127197265625,-17.76123046875,-80.078125,-10.009765625
24722.337071333,0.9371337890625,0.3160400390625,-0.4127197265625,-17.76123046875,-80.078125,-10.009765625
24722.343056791,0.9371337890625,0.312744140625,-0.4127197265625,-17.76123046875,-80.078125,-10.009765625
24722.352554916,0.9371337890625,0.312744140625,-0.4014892578125,-17.76123046875,-80.078125,-10.009765625
24722.352671916,0.9371337890625,0.312744140625,-0.4014892578125,-17.76123046875,-72.8759765625,-10.009765625
24722.352711,0.9202880859375,0.312744140625,-0.4014892578125,-17.76123046875,-72.8759765625,-10.009765625
24722.359511166,0.9202880859375,0.271240234375,-0.4014892578125,-17.76123046875,-72.8759765625,-10.009765625
24722.366948416,0.9202880859375,0.271240234375,-0.4014892578125,2.685546875,-72.8759765625,-10.009765625
24722.366988458,0.9202880859375,0.271240234375,-0.4014892578125,2.685546875,-68.54248046875,-10.009765625
24722.368172833,0.9202880859375,0.271240234375,-0.4014892578125,2.685546875,-68.54248046875,-11.3525390625
24722.397520666,0.904541015625,0.271240234375,-0.4014892578125,2.685546875,-68.54248046875,-11.3525390625
24722.39950575,0.904541015625,0.2396240234375,-0.4014892578125,2.685546875,-68.54248046875,-11.3525390625
24722.399574666,0.904541015625,0.2396240234375,-0.4532470703125,2.685546875,-68.54248046875,-11.3525390625
24722.399614041,0.904541015625,0.2396240234375,-0.4532470703125,-1.220703125,-68.54248046875,-11.3525390625
24722.442182,0.8526611328125,0.2396240234375,-0.4532470703125,-1.220703125,-68.54248046875,-11.3525390625
24722.442277916,0.8526611328125,0.2706298828125,-0.4532470703125,-1.220703125,-68.54248046875,-11.3525390625
24722.44372925,0.8526611328125,0.2706298828125,-0.4813232421875,-1.220703125,-68.54248046875,-11.3525390625
24722.443853833,0.8526611328125,0.2706298828125,-0.4813232421875,-1.220703125,-33.0810546875,-11.3525390625
24722.471877125,0.8282470703125,0.2706298828125,-0.4813232421875,-1.220703125,-33.0810546875,-11.3525390625
24722.473998125,0.8282470703125,0.2618408203125,-0.4813232421875,-1.220703125,-33.0810546875,-11.3525390625
24722.487447708,0.8282470703125,0.2618408203125,-0.563232421875,-1.220703125,-33.0810546875,-11.3525390625
24722.532718625,0.8282470703125,0.2618408203125,-0.563232421875,-9.33837890625,-33.0810546875,-11.3525390625
24722.543620791,0.8544921875,0.2618408203125,-0.563232421875,-9.33837890625,-33.0810546875,-11.3525390625
24722.5438035,0.8544921875,0.2574462890625,-0.563232421875,-9.33837890625,-33.0810546875,-11.3525390625
24722.54385875,0.8544921875,0.2574462890625,-0.563232421875,-30.82275390625,-33.0810546875,-11.3525390625
24722.549082333,0.8544921875,0.2574462890625,-0.563232421875,-30.82275390625,-33.0810546875,11.77978515625
24722.578488916,0.943115234375,0.2574462890625,-0.563232421875,-30.82275390625,-33.0810546875,11.77978515625
24722.578847083,0.943115234375,0.3824462890625,-0.563232421875,-30.82275390625,-33.0810546875,11.77978515625
24722.579016083,0.943115234375,0.3824462890625,-0.6640625,-30.82275390625,-33.0810546875,11.77978515625
24722.579111083,0.943115234375,0.3824462890625,-0.6640625,-53.64990234375,-33.0810546875,11.77978515625
24722.592079083,1.001708984375,0.3824462890625,-0.6640625,-53.64990234375,-33.0810546875,11.77978515625
24722.592166958,1.001708984375,0.4063720703125,-0.6640625,-53.64990234375,-33.0810546875,11.77978515625
24722.593082375,1.001708984375,0.4063720703125,-0.7064208984375,-53.64990234375,-33.0810546875,11.77978515625
24722.610981291,1.001708984375,0.4063720703125,-0.7064208984375,-53.64990234375,110.3515625,11.77978515625
24722.6110475,1.001708984375,0.4063720703125,-0.7064208984375,-53.64990234375,110.3515625,26.91650390625
24722.637322083,1.0521240234375,0.4063720703125,-0.7064208984375,-53.64990234375,110.3515625,26.91650390625
24722.644130833,1.0521240234375,0.415771484375,-0.7064208984375,-53.64990234375,110.3515625,26.91650390625
24722.644241291,1.0521240234375,0.415771484375,-0.7054443359375,-53.64990234375,110.3515625,26.91650390625
24722.644297416,1.0521240234375,0.415771484375,-0.7054443359375,-53.64990234375,134.33837890625,26.91650390625
24722.667096791,1.1148681640625,0.415771484375,-0.7054443359375,-53.64990234375,134.33837890625,26.91650390625
24722.667199291,1.1148681640625,0.4249267578125,-0.7054443359375,-53.64990234375,134.33837890625,26.91650390625
24722.668281666,1.1148681640625,0.4249267578125,-0.7618408203125,-53.64990234375,134.33837890625,26.91650390625
24722.668391583,1.1148681640625,0.4249267578125,-0.7618408203125,-53.64990234375,167.05322265625,26.91650390625
24722.681949208,1.1976318359375,0.4249267578125,-0.7618408203125,-53.64990234375,167.05322265625,26.91650390625
24722.682039958,1.1976318359375,0.4171142578125,-0.7618408203125,-53.64990234375,167.05322265625,26.91650390625
24722.684238041,1.1976318359375,0.4171142578125,-0.9339599609375,-53.64990234375,167.05322265625,26.91650390625
24722.697849,1.1976318359375,0.4171142578125,-0.9339599609375,-53.64990234375,181.396484375,26.91650390625
24722.69793475,1.1976318359375,0.4171142578125,-0.9339599609375,-53.64990234375,181.396484375,36.68212890625
24722.711795,1.159912109375,0.4171142578125,-0.9339599609375,-53.64990234375,181.396484375,36.68212890625
24722.7118705,1.159912109375,0.44189453125,-0.9339599609375,-53.64990234375,181.396484375,36.68212890625
24722.712809916,1.159912109375,0.44189453125,-0.925537109375,-53.64990234375,181.396484375,36.68212890625
24722.7443255,1.159912109375,0.44189453125,-0.925537109375,-53.64990234375,195.3125,36.68212890625
24722.744443875,1.159912109375,0.44189453125,-0.925537109375,-53.64990234375,195.3125,39.24560546875
24722.744509958,1.1141357421875,0.44189453125,-0.925537109375,-53.64990234375,195.3125,39.24560546875
24722.759680791,1.1141357421875,0.44189453125,-0.9486083984375,-53.64990234375,195.3125,39.24560546875
24722.759723791,1.1141357421875,0.44189453125,-0.9486083984375,21.30126953125,195.3125,39.24560546875
24722.759763833,1.1141357421875,0.44189453125,-0.9486083984375,21.30126953125,211.9140625,39.24560546875
24722.786327166,1.020751953125,0.44189453125,-0.9486083984375,21.30126953125,211.9140625,39.24560546875
NEW_REP,,,,,,
24722.793196333,1.020751953125,0.310791015625,-0.9486083984375,21.30126953125,211.9140625,39.24560546875
24722.793235875,1.020751953125,0.310791015625,-1.0533447265625,21.30126953125,211.9140625,39.24560546875
24722.793271625,1.020751953125,0.310791015625,-1.0533447265625,21.30126953125,229.00390625,39.24560546875
24722.816748291,0.9149169921875,0.310791015625,-1.0533447265625,21.30126953125,229.00390625,39.24560546875
24722.816859083,0.9149169921875,0.3424072265625,-1.0533447265625,21.30126953125,229.00390625,39.24560546875
24722.81824275,0.9149169921875,0.3424072265625,-0.9632568359375,21.30126953125,229.00390625,39.24560546875
24722.836479958,0.9149169921875,0.3424072265625,-0.9632568359375,21.30126953125,229.6142578125,39.24560546875
24722.836522833,0.9149169921875,0.3424072265625,-0.9632568359375,21.30126953125,229.6142578125,42.8466796875
24722.862024333,0.7081298828125,0.3424072265625,-0.9632568359375,21.30126953125,229.6142578125,42.8466796875
24722.862142375,0.7081298828125,0.298828125,-0.9632568359375,21.30126953125,229.6142578125,42.8466796875
24722.8637455,0.7081298828125,0.298828125,-0.9127197265625,21.30126953125,229.6142578125,42.8466796875
24722.863819875,0.7081298828125,0.298828125,-0.9127197265625,10.31494140625,229.6142578125,42.8466796875
24722.907022625,0.534912109375,0.298828125,-0.9127197265625,10.31494140625,229.6142578125,42.8466796875
24722.907074333,0.534912109375,0.316162109375,-0.9127197265625,10.31494140625,229.6142578125,42.8466796875
24722.924062583,0.534912109375,0.316162109375,-0.765625,10.31494140625,229.6142578125,42.8466796875
24722.924191291,0.534912109375,0.316162109375,-0.765625,8.9111328125,229.6142578125,42.8466796875
24722.924238458,0.4434814453125,0.316162109375,-0.765625,8.9111328125,229.6142578125,42.8466796875
24722.927738375,0.4434814453125,0.302734375,-0.765625,8.9111328125,229.6142578125,42.8466796875
24722.943542875,0.4434814453125,0.302734375,-0.765625,7.8125,229.6142578125,42.8466796875
24722.943606333,0.4434814453125,0.302734375,-0.765625,7.8125,202.63671875,42.8466796875
24722.943649333,0.4434814453125,0.302734375,-0.765625,7.8125,202.63671875,28.74755859375
24722.968551333,0.1978759765625,0.302734375,-0.765625,7.8125,202.63671875,28.74755859375
24722.968662458,0.1978759765625,0.266357421875,-0.765625,7.8125,202.63671875,28.74755859375
24722.96915375,0.1978759765625,0.266357421875,-0.79736328125,7.8125,202.63671875,28.74755859375
24722.96924925,0.1978759765625,0.266357421875,-0.79736328125,-26.4892578125,202.63671875,28.74755859375
24722.982524458,0.1407470703125,0.266357421875,-0.79736328125,-26.4892578125,202.63671875,28.74755859375
24722.982655791,0.1407470703125,0.33349609375,-0.79736328125,-26.4892578125,202.63671875,28.74755859375
24722.9840735,0.1407470703125,0.33349609375,-0.8734130859375,-26.4892578125,202.63671875,28.74755859375
24722.997943125,0.1407470703125,0.33349609375,-0.8734130859375,-26.4892578125,176.94091796875,28.74755859375
24722.998041208,0.1407470703125,0.33349609375,-0.8734130859375,-26.4892578125,176.94091796875,21.42333984375
24723.011214625,-0.0072021484375,0.33349609375,-0.8734130859375,-26.4892578125,176.94091796875,21.42333984375
24723.011648041,-0.0072021484375,0.2904052734375,-0.8734130859375,-26.4892578125,176.94091796875,21.42333984375
24723.013238833,-0.0072021484375,0.2904052734375,-0.8267822265625,-26.4892578125,176.94091796875,21.42333984375
24723.027784083,-0.0072021484375,0.2904052734375,-0.8267822265625,-26.4892578125,179.74853515625,21.42333984375
24723.02791225,-0.0072021484375,0.2904052734375,-0.8267822265625,-26.4892578125,179.74853515625,17.2119140625
24723.055226583,-0.0665283203125,0.2904052734375,-0.8267822265625,-26.4892578125,179.74853515625,17.2119140625
24723.060927375,-0.0665283203125,0.269775390625,-0.8267822265625,-26.4892578125,179.74853515625,17.2119140625
24723.061110791,-0.0665283203125,0.269775390625,-0.8033447265625,-26.4892578125,179.74853515625,17.2119140625
24723.061165375,-0.0665283203125,0.269775390625,-0.8033447265625,-26.4892578125,172.05810546875,17.2119140625
24723.0612135,-0.0665283203125,0.269775390625,-0.8033447265625,-26.4892578125,172.05810546875,17.2119140625
24723.077898791,-0.2000732421875,0.269775390625,-0.8033447265625,-26.4892578125,172.05810546875,17.2119140625
24723.077961708,-0.2000732421875,0.2442626953125,-0.8033447265625,-26.4892578125,172.05810546875,17.2119140625
24723.07800925,-0.2000732421875,0.2442626953125,-0.7978515625,-26.4892578125,172.05810546875,17.2119140625
24723.087750833,-0.2000732421875,0.2442626953125,-0.7978515625,-26.4892578125,160.46142578125,17.2119140625
24723.10220275,-0.2000732421875,0.2442626953125,-0.7978515625,-26.4892578125,160.46142578125,12.26806640625
24723.102313625,-0.300537109375,0.2442626953125,-0.7978515625,-26.4892578125,160.46142578125,12.26806640625
24723.10332075,-0.300537109375,0.3184814453125,-0.7978515625,-26.4892578125,160.46142578125,12.26806640625
24723.103424958,-0.300537109375,0.3184814453125,-0.618408203125,-26.4892578125,160.46142578125,12.26806640625
24723.116262291,-0.300537109375,0.3184814453125,-0.618408203125,-26.4892578125,158.69140625,12.26806640625
24723.117256041,-0.300537109375,0.3184814453125,-0.618408203125,-26.4892578125,158.69140625,10.3759765625
24723.132078833,-0.4757080078125,0.3184814453125,-0.618408203125,-26.4892578125,158.69140625,10.3759765625
24723.132181625,-0.4757080078125,0.2830810546875,-0.618408203125,-26.4892578125,158.69140625,10.3759765625
24723.133361083,-0.4757080078125,0.2830810546875,-0.4852294921875,-26.4892578125,158.69140625,10.3759765625
24723.147530625,-0.4757080078125,0.2830810546875,-0.4852294921875,-26.4892578125,165.1611328125,10.3759765625
24723.147646166,-0.4757080078125,0.2830810546875,-0.4852294921875,-26.4892578125,165.1611328125,10.6201171875
24723.192237375,-0.491943359375,0.2830810546875,-0.4852294921875,-26.4892578125,165.1611328125,10.6201171875
24723.192361833,-0.491943359375,0.258544921875,-0.4852294921875,-26.4892578125,165.1611328125,10.6201171875
24723.195286958,-0.491943359375,0.258544921875,-0.39306640625,-26.4892578125,165.1611328125,10.6201171875
24723.195349083,-0.491943359375,0.258544921875,-0.39306640625,-26.4892578125,146.05712890625,10.6201171875
24723.210558375,-0.59130859375,0.258544921875,-0.39306640625,-26.4892578125,146.05712890625,10.6201171875
24723.2106285,-0.59130859375,0.2374267578125,-0.39306640625,-26.4892578125,146.05712890625,10.6201171875
24723.2106835,-0.59130859375,0.2374267578125,-0.1522216796875,-26.4892578125,146.05712890625,10.6201171875
24723.227232541,-0.59130859375,0.2374267578125,-0.1522216796875,-26.4892578125,127.0751953125,10.6201171875
24723.22729325,-0.59130859375,0.2374267578125,-0.1522216796875,-26.4892578125,127.0751953125,7.8125
24723.25292025,-0.6842041015625,0.2374267578125,-0.1522216796875,-26.4892578125,127.0751953125,7.8125
24723.253114166,-0.6842041015625,0.314697265625,-0.1522216796875,-26.4892578125,127.0751953125,7.8125
24723.253178541,-0.6842041015625,0.314697265625,-0.0311279296875,-26.4892578125,127.0751953125,7.8125
24723.260594708,-0.6842041015625,0.314697265625,-0.0311279296875,-6.8359375,127.0751953125,7.8125
24723.269101333,-0.7291259765625,0.314697265625,-0.0311279296875,-6.8359375,127.0751953125,7.8125
24723.2692665,-0.7291259765625,0.3287353515625,-0.0311279296875,-6.8359375,127.0751953125,7.8125
24723.2693475,-0.7291259765625,0.3287353515625,-0.0606689453125,-6.8359375,127.0751953125,7.8125
24723.282431958,-0.7291259765625,0.3287353515625,-0.0606689453125,-6.8359375,56.2744140625,7.8125
24723.282550125,-0.7291259765625,0.3287353515625,-0.0606689453125,-6.8359375,56.2744140625,2.01416015625
24723.297085125,-0.7506103515625,0.3287353515625,-0.0606689453125,-6.8359375,56.2744140625,2.01416015625
24723.297229666,-0.7506103515625,0.3638916015625,-0.0606689453125,-6.8359375,56.2744140625,2.01416015625
24723.2981525,-0.7506103515625,0.3638916015625,0.1009521484375,-6.8359375,56.2744140625,2.01416015625
24723.312785708,-0.7506103515625,0.3638916015625,0.1009521484375,-6.8359375,14.95361328125,2.01416015625
24723.312900291,-0.7506103515625,0.3638916015625,0.1009521484375,-6.8359375,14.95361328125,2.86865234375
24723.342490416,-0.706787109375,0.3638916015625,0.1009521484375,-6.8359375,14.95361328125,2.86865234375
24723.34264475,-0.706787109375,0.3377685546875,0.1009521484375,-6.8359375,14.95361328125,2.86865234375
24723.343479458,-0.706787109375,0.3377685546875,0.1011962890625,-6.8359375,14.95361328125,2.86865234375
24723.343601,-0.706787109375,0.3377685546875,0.1011962890625,42.48046875,14.95361328125,2.86865234375
24723.360985625,-0.6756591796875,0.3377685546875,0.1011962890625,42.48046875,14.95361328125,2.86865234375
24723.361046916,-0.6756591796875,0.30078125,0.1011962890625,42.48046875,14.95361328125,2.86865234375
24723.3611,-0.6756591796875,0.30078125,0.0072021484375,42.48046875,14.95361328125,2.86865234375
24723.377756375,-0.6756591796875,0.30078125,0.0072021484375,42.48046875,-54.6875,2.86865234375
24723.377816833,-0.6756591796875,0.30078125,0.0072021484375,42.48046875,-54.6875,6.103515625
24723.387056666,-0.634521484375,0.30078125,0.0072021484375,42.48046875,-54.6875,6.103515625
24723.387190291,-0.634521484375,0.2640380859375,0.0072021484375,42.48046875,-54.6875,6.103515625
24723.394014,-0.634521484375,0.2640380859375,-0.073974609375,42.48046875,-54.6875,6.103515625
24723.402758208,-0.634521484375,0.2640380859375,-0.073974609375,42.48046875,-96.37451171875,6.103515625
24723.402861833,-0.634521484375,0.2640380859375,-0.073974609375,42.48046875,-96.37451171875,0.54931640625
24723.417170458,-0.5418701171875,0.2640380859375,-0.073974609375,42.48046875,-96.37451171875,0.54931640625
24723.417302125,-0.5418701171875,0.2357177734375,-0.073974609375,42.48046875,-96.37451171875,0.54931640625
24723.41814075,-0.5418701171875,0.2357177734375,-0.09033203125,42.48046875,-96.37451171875,0.54931640625
24723.447286083,-0.5418701171875,0.2357177734375,-0.09033203125,42.48046875,-121.9482421875,0.54931640625
24723.447416625,-0.5418701171875,0.2357177734375,-0.09033203125,42.48046875,-121.9482421875,-3.47900390625
24723.448324416,-0.4156494140625,0.2357177734375,-0.09033203125,42.48046875,-121.9482421875,-3.47900390625
24723.448445458,-0.4156494140625,0.2176513671875,-0.09033203125,42.48046875,-121.9482421875,-3.47900390625
24723.46232275,-0.4156494140625,0.2176513671875,-0.09033203125,42.48046875,-146.66748046875,-3.47900390625
24723.462441375,-0.4156494140625,0.2176513671875,-0.09033203125,42.48046875,-146.66748046875,-13.7939453125
24723.492318625,-0.3096923828125,0.2176513671875,-0.09033203125,42.48046875,-146.66748046875,-13.7939453125
24723.492456458,-0.3096923828125,0.1807861328125,-0.09033203125,42.48046875,-146.66748046875,-13.7939453125
24723.493264833,-0.3096923828125,0.1807861328125,-0.50439453125,42.48046875,-146.66748046875,-13.7939453125
24723.493389,-0.3096923828125,0.1807861328125,-0.50439453125,0.18310546875,-146.66748046875,-13.7939453125
24723.52270425,-0.296875,0.1807861328125,-0.50439453125,0.18310546875,-146.66748046875,-13.7939453125
24723.52283125,-0.296875,0.255126953125,-0.50439453125,0.18310546875,-146.66748046875,-13.7939453125
24723.523516875,-0.296875,0.255126953125,-0.444091796875,0.18310546875,-146.66748046875,-13.7939453125
24723.537438125,-0.296875,0.255126953125,-0.444091796875,0.18310546875,-195.12939453125,-13.7939453125
24723.537566833,-0.296875,0.255126953125,-0.444091796875,0.18310546875,-195.12939453125,-33.75244140625
24723.567412583,-0.0078125,0.255126953125,-0.444091796875,0.18310546875,-195.12939453125,-33.75244140625
24723.567571291,-0.0078125,0.3310546875,-0.444091796875,0.18310546875,-195.12939453125,-33.75244140625
24723.568168416,-0.0078125,0.3310546875,-0.625732421875,0.18310546875,-195.12939453125,-33.75244140625
24723.569810708,-0.0078125,0.3310546875,-0.625732421875,118.10302734375,-195.12939453125,-33.75244140625
24723.582119166,0.174560546875,0.3310546875,-0.625732421875,118.10302734375,-195.12939453125,-33.75244140625
24723.58225625,0.174560546875,0.10498046875,-0.625732421875,118.10302734375,-195.12939453125,-33.75244140625
24723.583887208,0.174560546875,0.10498046875,-1.0501708984375,118.10302734375,-195.12939453125,-33.75244140625
24723.612268083,0.174560546875,0.10498046875,-1.0501708984375,118.10302734375,-221.74072265625,-33.75244140625
24723.612431875,0.174560546875,0.10498046875,-1.0501708984375,118.10302734375,-221.74072265625,-57.67822265625
24723.627962583,0.1007080078125,0.10498046875,-1.0501708984375,118.10302734375,-221.74072265625,-57.67822265625
24723.628040875,0.1007080078125,0.44384765625,-1.0501708984375,118.10302734375,-221.74072265625,-57.67822265625
24723.629441916,0.1007080078125,0.44384765625,-1.0501708984375,118.10302734375,-251.708984375,-57.67822265625
24723.629584333,0.1007080078125,0.44384765625,-1.0501708984375,118.10302734375,-251.708984375,-67.5048828125
24723.657175291,0.395263671875,0.44384765625,-1.0501708984375,118.10302734375,-251.708984375,-67.5048828125
24723.657307333,0.395263671875,0.6954345703125,-1.0501708984375,118.10302734375,-251.708984375,-67.5048828125
24723.658097166,0.395263671875,0.6954345703125,-0.9534912109375,118.10302734375,-251.708984375,-67.5048828125
24723.658232625,0.395263671875,0.6954345703125,-0.9534912109375,122.1923828125,-251.708984375,-67.5048828125
24723.686553166,0.6317138671875,0.6954345703125,-0.9534912109375,122.1923828125,-251.708984375,-67.5048828125
24723.686714375,0.6317138671875,0.2562255859375,-0.9534912109375,122.1923828125,-251.708984375,-67.5048828125
24723.68784525,0.6317138671875,0.2562255859375,-1.3643798828125,122.1923828125,-251.708984375,-67.5048828125
24723.694961125,0.6317138671875,0.2562255859375,-1.3643798828125,124.267578125,-251.708984375,-67.5048828125
24723.717826333,0.640380859375,0.2562255859375,-1.3643798828125,124.267578125,-251.708984375,-67.5048828125
24723.717962791,0.640380859375,0.309814453125,-1.3643798828125,124.267578125,-251.708984375,-67.5048828125
24723.718474208,0.640380859375,0.309814453125,-1.3143310546875,124.267578125,-251.708984375,-67.5048828125
24723.731562708,0.640380859375,0.309814453125,-1.3143310546875,124.267578125,-226.9287109375,-67.5048828125
24723.732245375,0.640380859375,0.309814453125,-1.3143310546875,124.267578125,-226.9287109375,-85.87646484375
24723.762636541,0.7701416015625,0.309814453125,-1.3143310546875,124.267578125,-226.9287109375,-85.87646484375
24723.762809625,0.7701416015625,0.698486328125,-1.3143310546875,124.267578125,-226.9287109375,-85.87646484375
24723.792276833,0.7701416015625,0.698486328125,-0.990234375,124.267578125,-226.9287109375,-85.87646484375
24723.792435,0.7701416015625,0.698486328125,-0.990234375,66.162109375,-226.9287109375,-85.87646484375
24723.793425833,0.84716796875,0.698486328125,-0.990234375,66.162109375,-226.9287109375,-85.87646484375
24723.793576625,0.84716796875,0.33154296875,-0.990234375,66.162109375,-226.9287109375,-85.87646484375
24723.811853833,0.84716796875,0.33154296875,-0.990234375,83.49609375,-226.9287109375,-85.87646484375
24723.81193225,0.84716796875,0.33154296875,-0.990234375,83.49609375,-155.21240234375,-85.87646484375
24723.812004166,0.84716796875,0.33154296875,-0.990234375,83.49609375,-155.21240234375,-68.05419921875
24723.822392541,0.863037109375,0.33154296875,-0.990234375,83.49609375,-155.21240234375,-68.05419921875
24723.82852325,0.863037109375,0.6168212890625,-0.990234375,83.49609375,-155.21240234375,-68.05419921875
24723.828636166,0.863037109375,0.6168212890625,-0.7598876953125,83.49609375,-155.21240234375,-68.05419921875
24723.837668458,0.863037109375,0.6168212890625,-0.7598876953125,83.49609375,-153.74755859375,-68.05419921875
24723.837855791,0.863037109375,0.6168212890625,-0.7598876953125,83.49609375,-153.74755859375,-83.0078125
24723.852131666,0.9451904296875,0.6168212890625,-0.7598876953125,83.49609375,-153.74755859375,-83.0078125
24723.852316291,0.9451904296875,0.624755859375,-0.7598876953125,83.49609375,-153.74755859375,-83.0078125
24723.882577541,0.9451904296875,0.624755859375,-0.7518310546875,83.49609375,-153.74755859375,-83.0078125
24723.882768,0.9451904296875,0.624755859375,-0.7518310546875,83.49609375,-135.55908203125,-83.0078125
24723.897940666,0.9451904296875,0.624755859375,-0.7518310546875,83.49609375,-135.55908203125,-75.01220703125
24723.911611375,0.97998046875,0.624755859375,-0.7518310546875,83.49609375,-135.55908203125,-75.01220703125
24723.911785958,0.97998046875,0.624755859375,-0.9036865234375,83.49609375,-135.55908203125,-75.01220703125
24723.911861958,0.97998046875,0.624755859375,-0.9036865234375,12.5732421875,-135.55908203125,-75.01220703125
24723.912189916,0.97998046875,0.624755859375,-0.9036865234375,12.5732421875,-135.55908203125,-67.44384765625
24723.944567166,0.921630859375,0.624755859375,-0.9036865234375,12.5732421875,-135.55908203125,-67.44384765625
24723.944734791,0.921630859375,0.5831298828125,-0.9036865234375,12.5732421875,-135.55908203125,-67.44384765625
24723.94528525,0.921630859375,0.5831298828125,-0.637451171875,12.5732421875,-135.55908203125,-67.44384765625
24723.945427666,0.921630859375,0.5831298828125,-0.637451171875,-16.357421875,-135.55908203125,-67.44384765625
24723.973894083,0.951416015625,0.5831298828125,-0.637451171875,-16.357421875,-135.55908203125,-67.44384765625
24723.974126958,0.951416015625,0.5423583984375,-0.637451171875,-16.357421875,-135.55908203125,-67.44384765625
24723.97423925,0.951416015625,0.5423583984375,-0.660400390625,-16.357421875,-135.55908203125,-67.44384765625
24723.987907583,0.951416015625,0.5423583984375,-0.660400390625,-16.357421875,-86.3037109375,-67.44384765625
24723.989856458,0.951416015625,0.5423583984375,-0.660400390625,-16.357421875,-86.3037109375,-41.80908203125
24724.017879541,0.9027099609375,0.5423583984375,-0.660400390625,-16.357421875,-86.3037109375,-41.80908203125
24724.018048416,0.9027099609375,0.4129638671875,-0.660400390625,-16.357421875,-86.3037109375,-41.80908203125
24724.019106375,0.9027099609375,0.4129638671875,-0.5633544921875,-16.357421875,-86.3037109375,-41.80908203125
24724.019245208,0.9027099609375,0.4129638671875,-0.5633544921875,6.77490234375,-86.3037109375,-41.80908203125
24724.032518083,0.8690185546875,0.4129638671875,-0.5633544921875,6.77490234375,-86.3037109375,-41.80908203125
24724.062445208,0.8690185546875,0.4412841796875,-0.5633544921875,6.77490234375,-86.3037109375,-41.80908203125
24724.062642958,0.8690185546875,0.4412841796875,-0.4771728515625,6.77490234375,-86.3037109375,-41.80908203125
24724.063537833,0.8690185546875,0.4412841796875,-0.4771728515625,6.77490234375,-54.87060546875,-41.80908203125
24724.063704291,0.8690185546875,0.4412841796875,-0.4771728515625,6.77490234375,-54.87060546875,-24.4140625
24724.092499458,0.8690185546875,0.4412841796875,-0.439453125,6.77490234375,-54.87060546875,-24.4140625
24724.092665625,0.8690185546875,0.4412841796875,-0.439453125,-2.197265625,-54.87060546875,-24.4140625
24724.093268875,0.8690185546875,0.4412841796875,-0.439453125,-2.197265625,-46.69189453125,-24.4140625
24724.111735791,0.879150390625,0.4412841796875,-0.439453125,-2.197265625,-46.69189453125,-24.4140625
24724.111816875,0.879150390625,0.3831787109375,-0.439453125,-2.197265625,-46.69189453125,-24.4140625
24724.121151958,0.879150390625,0.3831787109375,-0.40234375,-2.197265625,-46.69189453125,-24.4140625
24724.128210583,0.879150390625,0.3831787109375,-0.40234375,-2.197265625,-38.2080078125,-24.4140625
24724.128281958,0.879150390625,0.3831787109375,-0.40234375,-2.197265625,-38.2080078125,-15.625
24724.152428958,0.8984375,0.3831787109375,-0.40234375,-2.197265625,-38.2080078125,-15.625
24724.152534833,0.8984375,0.3179931640625,-0.40234375,-2.197265625,-38.2080078125,-15.625
24724.153054541,0.8984375,0.3179931640625,-0.3531494140625,-2.197265625,-38.2080078125,-15.625
24724.153312666,0.8984375,0.3179931640625,-0.3531494140625,15.80810546875,-38.2080078125,-15.625
24724.167237,0.895263671875,0.3179931640625,-0.3531494140625,15.80810546875,-38.2080078125,-15.625
24724.167409125,0.895263671875,0.283447265625,-0.3531494140625,15.80810546875,-38.2080078125,-15.625
24724.168763041,0.895263671875,0.283447265625,-0.3533935546875,15.80810546875,-38.2080078125,-15.625
24724.197453458,0.895263671875,0.283447265625,-0.3533935546875,15.80810546875,-29.1748046875,-15.625
24724.197611458,0.895263671875,0.283447265625,-0.3533935546875,15.80810546875,-29.1748046875,-9.09423828125
24724.198158083,0.8902587890625,0.283447265625,-0.3533935546875,15.80810546875,-29.1748046875,-9.09423828125
24724.212068416,0.8902587890625,0.349365234375,-0.3533935546875,15.80810546875,-29.1748046875,-9.09423828125
24724.212212708,0.8902587890625,0.349365234375,-0.3533935546875,15.80810546875,-25.7568359375,-9.09423828125
24724.213738625,0.8902587890625,0.349365234375,-0.3533935546875,15.80810546875,-25.7568359375,-5.4931640625
24724.242066625,0.912841796875,0.349365234375,-0.3533935546875,15.80810546875,-25.7568359375,-5.4931640625
24724.242244,0.912841796875,0.26904296875,-0.3533935546875,15.80810546875,-25.7568359375,-5.4931640625
24724.243109541,0.912841796875,0.26904296875,-0.3172607421875,15.80810546875,-25.7568359375,-5.4931640625
24724.272332791,0.912841796875,0.26904296875,-0.3172607421875,15.80810546875,-12.939453125,-5.4931640625
24724.272488166,0.912841796875,0.26904296875,-0.3172607421875,15.80810546875,-12.939453125,1.15966796875
24724.273926708,0.9052734375,0.26904296875,-0.3172607421875,15.80810546875,-12.939453125,1.15966796875
24724.274105541,0.9052734375,0.2535400390625,-0.3172607421875,15.80810546875,-12.939453125,1.15966796875
24724.304004208,0.9052734375,0.2535400390625,-0.3172607421875,15.80810546875,-11.65771484375,1.15966796875
24724.304135625,0.9052734375,0.2535400390625,-0.3172607421875,15.80810546875,-11.65771484375,6.77490234375
NEW_REP,,,,,,
24724.318899916,0.9090576171875,0.2535400390625,-0.3172607421875,15.80810546875,-11.65771484375,6.77490234375
24724.319082416,0.9090576171875,0.3104248046875,-0.3172607421875,15.80810546875,-11.65771484375,6.77490234375
24724.319182416,0.9090576171875,0.3104248046875,-0.2872314453125,15.80810546875,-11.65771484375,6.77490234375
24724.34741225,0.899169921875,0.3104248046875,-0.2872314453125,15.80810546875,-11.65771484375,6.77490234375
24724.347502458,0.899169921875,0.2916259765625,-0.2872314453125,15.80810546875,-11.65771484375,6.77490234375
24724.348265333,0.899169921875,0.2916259765625,-0.2752685546875,15.80810546875,-11.65771484375,6.77490234375
24724.348406583,0.899169921875,0.2916259765625,-0.2752685546875,-3.90625,-11.65771484375,6.77490234375
24724.362529416,0.9058837890625,0.2916259765625,-0.2752685546875,-3.90625,-11.65771484375,6.77490234375
24724.365991666,0.9058837890625,0.2830810546875,-0.2752685546875,-3.90625,-11.65771484375,6.77490234375
24724.366105166,0.9058837890625,0.2830810546875,-0.29833984375,-3.90625,-11.65771484375,6.77490234375
24724.38058675,0.9058837890625,0.2830810546875,-0.29833984375,-3.90625,6.77490234375,6.77490234375
24724.380663875,0.9058837890625,0.2830810546875,-0.29833984375,-3.90625,6.77490234375,4.57763671875
24724.411451333,0.9195556640625,0.2830810546875,-0.29833984375,-3.90625,6.77490234375,4.57763671875
24724.411526041,0.9195556640625,0.2591552734375,-0.29833984375,-3.90625,6.77490234375,4.57763671875
24724.411585583,0.9195556640625,0.2591552734375,-0.47802734375,-3.90625,6.77490234375,4.57763671875
24724.428234375,0.9195556640625,0.2591552734375,-0.47802734375,-3.90625,17.2119140625,4.57763671875
24724.437112416,0.9195556640625,0.2591552734375,-0.47802734375,-3.90625,17.2119140625,13.18359375
24724.437265416,0.8992919921875,0.2591552734375,-0.47802734375,-3.90625,17.2119140625,13.18359375
24724.438051666,0.8992919921875,0.3145751953125,-0.47802734375,-3.90625,17.2119140625,13.18359375
24724.451780916,0.8992919921875,0.3145751953125,-0.47802734375,-3.90625,21.05712890625,13.18359375
24724.452281083,0.8992919921875,0.3145751953125,-0.47802734375,-3.90625,21.05712890625,27.2216796875
24724.467227916,0.9248046875,0.3145751953125,-0.47802734375,-3.90625,21.05712890625,27.2216796875
24724.467372416,0.9248046875,0.4912109375,-0.47802734375,-3.90625,21.05712890625,27.2216796875
24724.468009291,0.9248046875,0.4912109375,-0.645263671875,-3.90625,21.05712890625,27.2216796875
24724.497529625,0.9248046875,0.4912109375,-0.645263671875,-3.90625,81.97021484375,27.2216796875
24724.497663458,0.9248046875,0.4912109375,-0.645263671875,-3.90625,81.97021484375,40.771484375
24724.498733583,0.976318359375,0.4912109375,-0.645263671875,-3.90625,81.97021484375,40.771484375
24724.502032375,0.976318359375,0.4345703125,-0.645263671875,-3.90625,81.97021484375,40.771484375
24724.51244625,0.976318359375,0.4345703125,-0.645263671875,-3.90625,114.07470703125,40.771484375
24724.527953208,0.976318359375,0.4345703125,-0.645263671875,-3.90625,114.07470703125,52.3681640625
24724.544395791,1.0452880859375,0.4345703125,-0.645263671875,-3.90625,114.07470703125,52.3681640625
24724.5611755,1.0452880859375,0.47509765625,-0.645263671875,-3.90625,114.07470703125,52.3681640625
24724.561236875,1.0452880859375,0.47509765625,-0.9984130859375,-3.90625,114.07470703125,52.3681640625
24724.561307833,1.0452880859375,0.47509765625,-0.9984130859375,-73.1201171875,114.07470703125,52.3681640625
24724.561369083,1.0631103515625,0.47509765625,-0.9984130859375,-73.1201171875,114.07470703125,52.3681640625
24724.577592083,1.0631103515625,0.47509765625,-1.062744140625,-73.1201171875,114.07470703125,52.3681640625
24724.5777005,1.0631103515625,0.47509765625,-1.062744140625,-65.12451171875,114.07470703125,52.3681640625
24724.577754166,1.0631103515625,0.47509765625,-1.062744140625,-65.12451171875,161.0107421875,52.3681640625
24724.587105833,1.100341796875,0.47509765625,-1.062744140625,-65.12451171875,161.0107421875,52.3681640625
24724.587222125,1.100341796875,0.5028076171875,-1.062744140625,-65.12451171875,161.0107421875,52.3681640625
24724.59392825,1.100341796875,0.5028076171875,-1.251708984375,-65.12451171875,161.0107421875,52.3681640625
24724.602500041,1.100341796875,0.5028076171875,-1.251708984375,-65.12451171875,202.08740234375,52.3681640625
24724.602641125,1.100341796875,0.5028076171875,-1.251708984375,-65.12451171875,202.08740234375,64.02587890625
24724.617439,1.0789794921875,0.5028076171875,-1.251708984375,-65.12451171875,202.08740234375,64.02587890625
24724.617602125,1.0789794921875,0.411376953125,-1.251708984375,-65.12451171875,202.08740234375,64.02587890625
24724.617656083,1.0789794921875,0.411376953125,-1.30322265625,-65.12451171875,202.08740234375,64.02587890625
24724.632728666,1.0789794921875,0.411376953125,-1.30322265625,-65.12451171875,238.58642578125,64.02587890625
24724.632860916,1.0789794921875,0.411376953125,-1.30322265625,-65.12451171875,238.58642578125,62.07275390625
24724.66231025,0.920654296875,0.411376953125,-1.30322265625,-65.12451171875,238.58642578125,62.07275390625
24724.662450708,0.920654296875,0.392578125,-1.30322265625,-65.12451171875,238.58642578125,62.07275390625
24724.663336083,0.920654296875,0.392578125,-1.157958984375,-65.12451171875,238.58642578125,62.07275390625
24724.678014083,0.920654296875,0.392578125,-1.157958984375,-65.12451171875,253.35693359375,62.07275390625
24724.678150416,0.920654296875,0.392578125,-1.157958984375,-65.12451171875,253.35693359375,55.17578125
24724.707563791,0.705810546875,0.392578125,-1.157958984375,-65.12451171875,253.35693359375,55.17578125
24724.707710375,0.705810546875,0.3692626953125,-1.157958984375,-65.12451171875,253.35693359375,55.17578125
24724.708608916,0.705810546875,0.3692626953125,-1.093505859375,-65.12451171875,253.35693359375,55.17578125
24724.70874225,0.705810546875,0.3692626953125,-1.093505859375,-2.8076171875,253.35693359375,55.17578125
24724.737437166,0.6326904296875,0.3692626953125,-1.093505859375,-2.8076171875,253.35693359375,55.17578125
24724.73756375,0.6326904296875,0.3653564453125,-1.093505859375,-2.8076171875,253.35693359375,55.17578125
24724.744348958,0.6326904296875,0.3653564453125,-1.0040283203125,-2.8076171875,253.35693359375,55.17578125
24724.744421416,0.6326904296875,0.3653564453125,-1.0040283203125,-2.8076171875,255.126953125,55.17578125
24724.752600333,0.486328125,0.3653564453125,-1.0040283203125,-2.8076171875,255.126953125,55.17578125
24724.752775291,0.486328125,0.363037109375,-1.0040283203125,-2.8076171875,255.126953125,55.17578125
24724.752853458,0.486328125,0.363037109375,-0.8074951171875,-2.8076171875,255.126953125,55.17578125
24724.78333425,0.486328125,0.363037109375,-0.8074951171875,-2.8076171875,255.18798828125,55.17578125
24724.783406916,0.486328125,0.363037109375,-0.8074951171875,-2.8076171875,255.18798828125,39.00146484375
24724.810997416,0.39697265625,0.363037109375,-0.8074951171875,-2.8076171875,255.18798828125,39.00146484375
24724.811059,0.39697265625,0.288330078125,-0.8074951171875,-2.8076171875,255.18798828125,39.00146484375
24724.811111875,0.39697265625,0.288330078125,-0.8074951171875,-2.8076171875,255.31005859375,39.00146484375
24724.811178666,0.39697265625,0.288330078125,-0.8074951171875,-2.8076171875,255.31005859375,35.7666015625
24724.827811333,0.2191162109375,0.288330078125,-0.8074951171875,-2.8076171875,255.31005859375,35.7666015625
24724.827869666,0.2191162109375,0.29833984375,-0.8074951171875,-2.8076171875,255.31005859375,35.7666015625
24724.828645625,0.2191162109375,0.29833984375,-0.7779541015625,-2.8076171875,255.31005859375,35.7666015625
24724.828768666,0.2191162109375,0.29833984375,-0.7779541015625,-13.48876953125,255.31005859375,35.7666015625
24724.85751125,0.076904296875,0.29833984375,-0.7779541015625,-13.48876953125,255.31005859375,35.7666015625
24724.872403,0.076904296875,0.3160400390625,-0.7779541015625,-13.48876953125,255.31005859375,35.7666015625
24724.872545916,0.076904296875,0.3160400390625,-0.7154541015625,-13.48876953125,255.31005859375,35.7666015625
24724.873284333,0.076904296875,0.3160400390625,-0.7154541015625,-26.06201171875,255.31005859375,35.7666015625
24724.8734005,-0.030517578125,0.3160400390625,-0.7154541015625,-26.06201171875,255.31005859375,35.7666015625
24724.894398208,-0.030517578125,0.3160400390625,-0.7421875,-26.06201171875,255.31005859375,35.7666015625
24724.894457125,-0.030517578125,0.3160400390625,-0.7421875,-19.4091796875,255.31005859375,35.7666015625
24724.894509291,-0.030517578125,0.3160400390625,-0.7421875,-19.4091796875,231.75048828125,35.7666015625
24724.916261125,-0.16015625,0.3160400390625,-0.7421875,-19.4091796875,231.75048828125,35.7666015625
24724.9183515,-0.16015625,0.275390625,-0.7421875,-19.4091796875,231.75048828125,35.7666015625
24724.918530208,-0.16015625,0.275390625,-0.5811767578125,-19.4091796875,231.75048828125,35.7666015625
24724.918614875,-0.16015625,0.275390625,-0.5811767578125,-12.5732421875,231.75048828125,35.7666015625
24724.932559416,-0.16015625,0.275390625,-0.5811767578125,-12.5732421875,208.55712890625,35.7666015625
24724.947388041,-0.16015625,0.275390625,-0.5811767578125,-12.5732421875,208.55712890625,23.74267578125
24724.9632965,-0.2813720703125,0.275390625,-0.5811767578125,-12.5732421875,208.55712890625,23.74267578125
24724.9634975,-0.2813720703125,0.2200927734375,-0.5811767578125,-12.5732421875,208.55712890625,23.74267578125
24724.963600083,-0.2813720703125,0.2200927734375,-0.287353515625,-12.5732421875,208.55712890625,23.74267578125
24724.977577041,-0.2813720703125,0.2200927734375,-0.287353515625,-12.5732421875,194.091796875,23.74267578125
24724.97764275,-0.2813720703125,0.2200927734375,-0.287353515625,-12.5732421875,194.091796875,18.73779296875
24725.009527833,-0.49462890625,0.2200927734375,-0.287353515625,-12.5732421875,194.091796875,18.73779296875
24725.009775333,-0.49462890625,0.2293701171875,-0.287353515625,-12.5732421875,194.091796875,18.73779296875
24725.009843166,-0.49462890625,0.2293701171875,-0.13037109375,-12.5732421875,194.091796875,18.73779296875
24725.009944666,-0.49462890625,0.2293701171875,-0.13037109375,21.42333984375,194.091796875,18.73779296875
24725.037664083,-0.532470703125,0.2293701171875,-0.13037109375,21.42333984375,194.091796875,18.73779296875
24725.037761916,-0.532470703125,0.189208984375,-0.13037109375,21.42333984375,194.091796875,18.73779296875
24725.04437625,-0.532470703125,0.189208984375,0.16162109375,21.42333984375,194.091796875,18.73779296875
24725.044448291,-0.532470703125,0.189208984375,0.16162109375,31.8603515625,194.091796875,18.73779296875
24725.067614875,-0.5811767578125,0.189208984375,0.16162109375,31.8603515625,194.091796875,18.73779296875
24725.06774075,-0.5811767578125,0.1484375,0.16162109375,31.8603515625,194.091796875,18.73779296875
24725.0687195,-0.5811767578125,0.1484375,0.24658203125,31.8603515625,194.091796875,18.73779296875
24725.068859,-0.5811767578125,0.1484375,0.24658203125,3.0517578125,194.091796875,18.73779296875
24725.09754025,-0.64501953125,0.1484375,0.24658203125,3.0517578125,194.091796875,18.73779296875
24725.097694,-0.64501953125,0.30322265625,0.24658203125,3.0517578125,194.091796875,18.73779296875
24725.098410291,-0.64501953125,0.30322265625,0.2998046875,3.0517578125,194.091796875,18.73779296875
24725.098550875,-0.64501953125,0.30322265625,0.2998046875,-10.31494140625,194.091796875,18.73779296875
24725.127978625,-0.6904296875,0.30322265625,0.2998046875,-10.31494140625,194.091796875,18.73779296875
24725.128167041,-0.6904296875,0.28271484375,0.2998046875,-10.31494140625,194.091796875,18.73779296875
24725.128268333,-0.6904296875,0.28271484375,0.340576171875,-10.31494140625,194.091796875,18.73779296875
24725.129198791,-0.6904296875,0.28271484375,0.340576171875,11.8408203125,194.091796875,18.73779296875
24725.144366333,-0.6566162109375,0.28271484375,0.340576171875,11.8408203125,194.091796875,18.73779296875
24725.144431,-0.6566162109375,0.2115478515625,0.340576171875,11.8408203125,194.091796875,18.73779296875
24725.144485125,-0.6566162109375,0.2115478515625,0.221923828125,11.8408203125,194.091796875,18.73779296875
24725.161113708,-0.6566162109375,0.2115478515625,0.221923828125,11.8408203125,-63.04931640625,18.73779296875
24725.161170666,-0.6566162109375,0.2115478515625,0.221923828125,11.8408203125,-63.04931640625,-1.708984375
24725.1719995,-0.6201171875,0.2115478515625,0.221923828125,11.8408203125,-63.04931640625,-1.708984375
24725.177488875,-0.6201171875,0.151611328125,0.221923828125,11.8408203125,-63.04931640625,-1.708984375
24725.177580125,-0.6201171875,0.151611328125,0.140625,11.8408203125,-63.04931640625,-1.708984375
24725.187791541,-0.6201171875,0.151611328125,0.140625,11.8408203125,-100.89111328125,-1.708984375
24725.193950083,-0.6201171875,0.151611328125,0.140625,11.8408203125,-100.89111328125,-7.26318359375
24725.202113333,-0.5645751953125,0.151611328125,0.140625,11.8408203125,-100.89111328125,-7.26318359375
24725.202238416,-0.5645751953125,0.1700439453125,0.140625,11.8408203125,-100.89111328125,-7.26318359375
24725.203135833,-0.5645751953125,0.1700439453125,-0.064453125,11.8408203125,-100.89111328125,-7.26318359375
24725.218036416,-0.5645751953125,0.1700439453125,-0.064453125,11.8408203125,-141.05224609375,-7.26318359375
24725.21815875,-0.5645751953125,0.1700439453125,-0.064453125,11.8408203125,-141.05224609375,-17.333984375
24725.232312916,-0.50244140625,0.1700439453125,-0.064453125,11.8408203125,-141.05224609375,-17.333984375
24725.23245875,-0.50244140625,0.2633056640625,-0.064453125,11.8408203125,-141.05224609375,-17.333984375
24725.233284708,-0.50244140625,0.2633056640625,-0.2218017578125,11.8408203125,-141.05224609375,-17.333984375
24725.248223208,-0.50244140625,0.2633056640625,-0.2218017578125,11.8408203125,-186.4013671875,-17.333984375
24725.248338,-0.50244140625,0.2633056640625,-0.2218017578125,11.8408203125,-186.4013671875,-26.55029296875
24725.262318625,-0.43310546875,0.2633056640625,-0.2218017578125,11.8408203125,-186.4013671875,-26.55029296875
24725.262429458,-0.43310546875,0.2581787109375,-0.2218017578125,11.8408203125,-186.4013671875,-26.55029296875
24725.263597166,-0.43310546875,0.2581787109375,-0.32763671875,11.8408203125,-186.4013671875,-26.55029296875
24725.292230375,-0.43310546875,0.2581787109375,-0.32763671875,11.8408203125,-201.7822265625,-26.55029296875
24725.292363416,-0.43310546875,0.2581787109375,-0.32763671875,11.8408203125,-201.7822265625,-32.53173828125
24725.293118875,-0.302734375,0.2581787109375,-0.32763671875,11.8408203125,-201.7822265625,-32.53173828125
24725.311056166,-0.302734375,0.2581787109375,-0.2520751953125,11.8408203125,-201.7822265625,-32.53173828125
24725.311122708,-0.302734375,0.2581787109375,-0.2520751953125,14.5263671875,-201.7822265625,-32.53173828125
24725.311177583,-0.302734375,0.2581787109375,-0.2520751953125,14.5263671875,-206.23779296875,-32.53173828125
24725.327872916,-0.1480712890625,0.2581787109375,-0.2520751953125,14.5263671875,-206.23779296875,-32.53173828125
24725.327932416,-0.1480712890625,0.4725341796875,-0.2520751953125,14.5263671875,-206.23779296875,-32.53173828125
24725.327986083,-0.1480712890625,0.4725341796875,-0.290283203125,14.5263671875,-206.23779296875,-32.53173828125
24725.337839833,-0.1480712890625,0.4725341796875,-0.290283203125,14.5263671875,-200.98876953125,-32.53173828125
24725.343971166,-0.1480712890625,0.4725341796875,-0.290283203125,14.5263671875,-200.98876953125,-44.189453125
24725.382409,0.0811767578125,0.4725341796875,-0.290283203125,14.5263671875,-200.98876953125,-44.189453125
24725.3856335,0.0811767578125,0.2386474609375,-0.290283203125,14.5263671875,-200.98876953125,-44.189453125
24725.385748791,0.0811767578125,0.2386474609375,-0.9862060546875,14.5263671875,-200.98876953125,-44.189453125
24725.399600416,0.0811767578125,0.2386474609375,-0.9862060546875,14.5263671875,-217.34619140625,-44.189453125
24725.399670541,0.0811767578125,0.2386474609375,-0.9862060546875,14.5263671875,-217.34619140625,-57.18994140625
24725.427768458,0.171875,0.2386474609375,-0.9862060546875,14.5263671875,-217.34619140625,-57.18994140625
24725.427829291,0.171875,0.6932373046875,-0.9862060546875,14.5263671875,-217.34619140625,-57.18994140625
24725.427881416,0.171875,0.6932373046875,-0.7098388671875,14.5263671875,-217.34619140625,-57.18994140625
24725.427933125,0.171875,0.6932373046875,-0.7098388671875,14.5263671875,-241.14990234375,-57.18994140625
24725.427984708,0.171875,0.6932373046875,-0.7098388671875,14.5263671875,-241.14990234375,-60.302734375
24725.457673291,0.444091796875,0.6932373046875,-0.7098388671875,14.5263671875,-241.14990234375,-60.302734375
24725.457864708,0.444091796875,0.5596923828125,-0.7098388671875,14.5263671875,-241.14990234375,-60.302734375
24725.457964625,0.444091796875,0.5596923828125,-1.066162109375,14.5263671875,-241.14990234375,-60.302734375
24725.458609,0.444091796875,0.5596923828125,-1.066162109375,14.5263671875,-195.37353515625,-60.302734375
24725.47762,0.501953125,0.5596923828125,-1.066162109375,14.5263671875,-195.37353515625,-60.302734375
24725.477690958,0.501953125,0.2781982421875,-1.066162109375,14.5263671875,-195.37353515625,-60.302734375
24725.477746791,0.501953125,0.2781982421875,-1.3165283203125,14.5263671875,-195.37353515625,-60.302734375
24725.487658125,0.501953125,0.2781982421875,-1.3165283203125,14.5263671875,-205.810546875,-60.302734375
24725.502978166,0.501953125,0.2781982421875,-1.3165283203125,14.5263671875,-205.810546875,-77.57568359375
24725.517171708,0.5196533203125,0.2781982421875,-1.3165283203125,14.5263671875,-205.810546875,-77.57568359375
24725.517307125,0.5196533203125,0.5006103515625,-1.3165283203125,14.5263671875,-205.810546875,-77.57568359375
24725.517913916,0.5196533203125,0.5006103515625,-0.882080078125,14.5263671875,-205.810546875,-77.57568359375
24725.547441625,0.7396240234375,0.5006103515625,-0.882080078125,14.5263671875,-205.810546875,-77.57568359375
24725.547575,0.7396240234375,0.683349609375,-0.882080078125,14.5263671875,-205.810546875,-77.57568359375
24725.562117583,0.7396240234375,0.683349609375,-0.9141845703125,14.5263671875,-205.810546875,-77.57568359375
24725.565138041,0.7396240234375,0.683349609375,-0.9141845703125,14.5263671875,-169.677734375,-77.57568359375
24725.565254083,0.7396240234375,0.683349609375,-0.9141845703125,14.5263671875,-169.677734375,-80.01708984375
24725.59447825,0.9327392578125,0.683349609375,-0.9141845703125,14.5263671875,-169.677734375,-80.01708984375
24725.594541125,0.9327392578125,0.4713134765625,-0.9141845703125,14.5263671875,-169.677734375,-80.01708984375
24725.594596208,0.9327392578125,0.4713134765625,-1.3875732421875,14.5263671875,-169.677734375,-80.01708984375
24725.594651083,0.9327392578125,0.4713134765625,-1.3875732421875,14.5263671875,-188.53759765625,-80.01708984375
24725.594704083,0.9327392578125,0.4713134765625,-1.3875732421875,14.5263671875,-188.53759765625,-96.37451171875
24725.611178916,0.861572265625,0.4713134765625,-1.3875732421875,14.5263671875,-188.53759765625,-96.37451171875
24725.6112575,0.861572265625,0.6634521484375,-1.3875732421875,14.5263671875,-188.53759765625,-96.37451171875
24725.627490416,0.861572265625,0.6634521484375,-1.0635986328125,14.5263671875,-188.53759765625,-96.37451171875
24725.627551416,0.861572265625,0.6634521484375,-1.0635986328125,14.5263671875,-172.30224609375,-96.37451171875
24725.627604375,0.861572265625,0.6634521484375,-1.0635986328125,14.5263671875,-172.30224609375,-86.181640625
24725.652657208,0.8441162109375,0.6634521484375,-1.0635986328125,14.5263671875,-172.30224609375,-86.181640625
24725.652793541,0.8441162109375,0.666015625,-1.0635986328125,14.5263671875,-172.30224609375,-86.181640625
24725.66715575,0.8441162109375,0.666015625,-0.880126953125,14.5263671875,-172.30224609375,-86.181640625
24725.667291416,0.8441162109375,0.666015625,-0.880126953125,14.5263671875,-86.9140625,-86.181640625
24725.667918083,0.8441162109375,0.666015625,-0.880126953125,14.5263671875,-86.9140625,-54.01611328125
24725.697538666,0.7484130859375,0.666015625,-0.880126953125,14.5263671875,-86.9140625,-54.01611328125
24725.697680791,0.7484130859375,0.4306640625,-0.880126953125,14.5263671875,-86.9140625,-54.01611328125
24725.698233916,0.7484130859375,0.4306640625,-0.68603515625,14.5263671875,-86.9140625,-54.01611328125
24725.698368,0.7484130859375,0.4306640625,-0.68603515625,46.93603515625,-86.9140625,-54.01611328125
24725.7278515,0.767333984375,0.4306640625,-0.68603515625,46.93603515625,-86.9140625,-54.01611328125
24725.729826125,0.767333984375,0.4481201171875,-0.68603515625,46.93603515625,-86.9140625,-54.01611328125
24725.729975458,0.767333984375,0.4481201171875,-0.542236328125,46.93603515625,-86.9140625,-54.01611328125
24725.742808541,0.767333984375,0.4481201171875,-0.542236328125,46.93603515625,-81.35986328125,-54.01611328125
24725.742959,0.767333984375,0.4481201171875,-0.542236328125,46.93603515625,-81.35986328125,-54.99267578125
24725.789345916,0.87060546875,0.4481201171875,-0.542236328125,46.93603515625,-81.35986328125,-54.99267578125
24725.789486875,0.87060546875,0.50439453125,-0.542236328125,46.93603515625,-81.35986328125,-54.99267578125
24725.790772333,0.87060546875,0.50439453125,-0.5093994140625,46.93603515625,-81.35986328125,-54.99267578125
24725.790891083,0.87060546875,0.50439453125,-0.5093994140625,9.1552734375,-81.35986328125,-54.99267578125
24725.811021291,0.93017578125,0.50439453125,-0.5093994140625,9.1552734375,-81.35986328125,-54.99267578125
24725.811078125,0.93017578125,0.477783203125,-0.5093994140625,9.1552734375,-81.35986328125,-54.99267578125
24725.811132041,0.93017578125,0.477783203125,-0.5089111328125,9.1552734375,-81.35986328125,-54.99267578125
24725.817712083,0.93017578125,0.477783203125,-0.5089111328125,9.1552734375,-106.26220703125,-54.99267578125
24725.817820833,0.93017578125,0.477783203125,-0.5089111328125,9.1552734375,-106.26220703125,-55.11474609375
24725.847451208,1.000244140625,0.477783203125,-0.5089111328125,9.1552734375,-106.26220703125,-55.11474609375
24725.847507291,1.000244140625,0.44580078125,-0.5089111328125,9.1552734375,-106.26220703125,-55.11474609375
24725.848260041,1.000244140625,0.44580078125,-0.4583740234375,9.1552734375,-106.26220703125,-55.11474609375
24725.8483745,1.000244140625,0.44580078125,-0.4583740234375,9.1552734375,-94.54345703125,-55.11474609375
24725.878383833,0.96728515625,0.44580078125,-0.4583740234375,9.1552734375,-94.54345703125,-55.11474609375
24725.878543583,0.96728515625,0.3885498046875,-0.4583740234375,9.1552734375,-94.54345703125,-55.11474609375
24725.87859775,0.96728515625,0.3885498046875,-0.4742431640625,9.1552734375,-94.54345703125,-55.11474609375
24725.892916833,0.96728515625,0.3885498046875,-0.4742431640625,9.1552734375,-85.14404296875,-55.11474609375
24725.89305775,0.96728515625,0.3885498046875,-0.4742431640625,9.1552734375,-85.14404296875,-41.93115234375
24725.922418166,0.8876953125,0.3885498046875,-0.4742431640625,9.1552734375,-85.14404296875,-41.93115234375
24725.982740875,0.8876953125,0.437744140625,-0.4742431640625,9.1552734375,-85.14404296875,-41.93115234375
24725.982984541,0.8876953125,0.437744140625,-0.40673828125,9.1552734375,-85.14404296875,-41.93115234375
24725.983068708,0.8876953125,0.437744140625,-0.40673828125,0.48828125,-85.14404296875,-41.93115234375
24725.994409291,0.904541015625,0.437744140625,-0.40673828125,0.48828125,-85.14404296875,-41.93115234375
24725.99726325,0.904541015625,0.437744140625,-0.341064453125,0.48828125,-85.14404296875,-41.93115234375
24725.997439958,0.904541015625,0.437744140625,-0.341064453125,6.89697265625,-85.14404296875,-41.93115234375
24725.997556291,0.904541015625,0.437744140625,-0.341064453125,6.89697265625,-33.69140625,-41.93115234375
24726.026307958,0.899658203125,0.437744140625,-0.341064453125,6.89697265625,-33.69140625,-41.93115234375
24726.028006625,0.899658203125,0.30712890625,-0.341064453125,6.89697265625,-33.69140625,-41.93115234375
24726.028264541,0.899658203125,0.30712890625,-0.3505859375,6.89697265625,-33.69140625,-41.93115234375
24726.028433541,0.899658203125,0.30712890625,-0.3505859375,10.009765625,-33.69140625,-41.93115234375
24726.044393375,0.896484375,0.30712890625,-0.3505859375,10.009765625,-33.69140625,-41.93115234375
24726.04447075,0.896484375,0.2930908203125,-0.3505859375,10.009765625,-33.69140625,-41.93115234375
24726.044531666,0.896484375,0.2930908203125,-0.299072265625,10.009765625,-33.69140625,-41.93115234375
24726.061124208,0.896484375,0.2930908203125,-0.299072265625,10.009765625,-9.58251953125,-41.93115234375
24726.061218,0.896484375,0.2930908203125,-0.299072265625,10.009765625,-9.58251953125,0.0
24726.0871985,0.90087890625,0.2930908203125,-0.299072265625,10.009765625,-9.58251953125,0.0
24726.087342083,0.90087890625,0.305419921875,-0.299072265625,10.009765625,-9.58251953125,0.0
24726.094165125,0.90087890625,0.305419921875,-0.32958984375,10.009765625,-9.58251953125,0.0
24726.094229083,0.90087890625,0.305419921875,-0.32958984375,-1.220703125,-9.58251953125,0.0
24726.102135708,0.898681640625,0.305419921875,-0.32958984375,-1.220703125,-9.58251953125,0.0
24726.102293916,0.898681640625,0.318603515625,-0.32958984375,-1.220703125,-9.58251953125,0.0
24726.102382416,0.898681640625,0.318603515625,-0.3504638671875,-1.220703125,-9.58251953125,0.0
NEW_REP,,,,,,
24726.117527208,0.898681640625,0.318603515625,-0.3504638671875,-1.220703125,1.89208984375,0.0
24726.11761625,0.898681640625,0.318603515625,-0.3504638671875,-1.220703125,1.89208984375,6.40869140625
24726.132455833,0.898193359375,0.318603515625,-0.3504638671875,-1.220703125,1.89208984375,6.40869140625
24726.132624333,0.898193359375,0.323486328125,-0.3504638671875,-1.220703125,1.89208984375,6.40869140625
24726.132718666,0.898193359375,0.323486328125,-0.3602294921875,-1.220703125,1.89208984375,6.40869140625
24726.147223125,0.898193359375,0.323486328125,-0.3602294921875,-1.220703125,12.51220703125,6.40869140625
24726.147392291,0.898193359375,0.323486328125,-0.3602294921875,-1.220703125,12.51220703125,10.986328125
24726.162016666,0.892822265625,0.323486328125,-0.3602294921875,-1.220703125,12.51220703125,10.986328125
24726.162179166,0.892822265625,0.3544921875,-0.3602294921875,-1.220703125,12.51220703125,10.986328125
24726.162271375,0.892822265625,0.3544921875,-0.5316162109375,-1.220703125,12.51220703125,10.986328125
24726.177570208,0.892822265625,0.3544921875,-0.5316162109375,-1.220703125,29.72412109375,10.986328125
24726.177634458,0.892822265625,0.3544921875,-0.5316162109375,-1.220703125,29.72412109375,23.0712890625
24726.194446916,0.8994140625,0.3544921875,-0.5316162109375,-1.220703125,29.72412109375,23.0712890625
24726.211111333,0.8994140625,0.423095703125,-0.5316162109375,-1.220703125,29.72412109375,23.0712890625
24726.211178041,0.8994140625,0.423095703125,-0.5753173828125,-1.220703125,29.72412109375,23.0712890625
24726.211239666,0.8994140625,0.423095703125,-0.5753173828125,-1.220703125,40.6494140625,23.0712890625
24726.211297708,0.8994140625,0.423095703125,-0.5753173828125,-1.220703125,40.6494140625,34.912109375
24726.237195708,0.91162109375,0.423095703125,-0.5753173828125,-1.220703125,40.6494140625,34.912109375
24726.23733325,0.91162109375,0.4693603515625,-0.5753173828125,-1.220703125,40.6494140625,34.912109375
24726.2443565,0.91162109375,0.4693603515625,-0.576416015625,-1.220703125,40.6494140625,34.912109375
24726.244421958,0.91162109375,0.4693603515625,-0.576416015625,-1.220703125,75.5615234375,34.912109375
24726.282409541,1.0015869140625,0.4693603515625,-0.576416015625,-1.220703125,75.5615234375,34.912109375
24726.286228333,1.0015869140625,0.4688720703125,-0.576416015625,-1.220703125,75.5615234375,34.912109375
24726.286303916,1.0015869140625,0.4688720703125,-0.79052734375,-1.220703125,75.5615234375,34.912109375
24726.311515958,1.0015869140625,0.4688720703125,-0.79052734375,-1.220703125,113.22021484375,34.912109375
24726.342117,1.0015869140625,0.4688720703125,-0.79052734375,-1.220703125,113.22021484375,61.6455078125
24726.343642,1.0078125,0.4688720703125,-0.79052734375,-1.220703125,113.22021484375,61.6455078125
24726.343851833,1.0078125,0.5328369140625,-0.79052734375,-1.220703125,113.22021484375,61.6455078125
24726.343958666,1.0078125,0.5328369140625,-0.79052734375,-1.220703125,152.64892578125,61.6455078125
24726.361246833,0.9708251953125,0.5328369140625,-0.79052734375,-1.220703125,152.64892578125,61.6455078125
24726.378289916,0.9708251953125,0.5242919921875,-0.79052734375,-1.220703125,152.64892578125,61.6455078125
24726.378357,0.9708251953125,0.5242919921875,-1.01123046875,-1.220703125,152.64892578125,61.6455078125
24726.378417541,0.9708251953125,0.5242919921875,-1.01123046875,-1.220703125,174.74365234375,61.6455078125
24726.378476541,0.9708251953125,0.5242919921875,-1.01123046875,-1.220703125,174.74365234375,75.439453125
24726.402558125,0.9815673828125,0.5242919921875,-1.01123046875,-1.220703125,174.74365234375,75.439453125
24726.402724083,0.9815673828125,0.524169921875,-1.01123046875,-1.220703125,174.74365234375,75.439453125
24726.417419875,0.9815673828125,0.524169921875,-1.09228515625,-1.220703125,174.74365234375,75.439453125
24726.417610125,0.9815673828125,0.524169921875,-1.09228515625,-1.220703125,189.208984375,75.439453125
24726.432326625,0.8892822265625,0.524169921875,-1.09228515625,-1.220703125,189.208984375,75.439453125
24726.432490916,0.8892822265625,0.4539794921875,-1.09228515625,-1.220703125,189.208984375,75.439453125
24726.432553458,0.8892822265625,0.4539794921875,-1.119873046875,-1.220703125,189.208984375,75.439453125
24726.461412958,0.8892822265625,0.4539794921875,-1.119873046875,-1.220703125,189.208984375,79.28466796875
24726.477441666,0.7156982421875,0.4539794921875,-1.119873046875,-1.220703125,189.208984375,79.28466796875
24726.477602541,0.7156982421875,0.5196533203125,-1.119873046875,-1.220703125,189.208984375,79.28466796875
24726.478682791,0.7156982421875,0.5196533203125,-1.1673583984375,-1.220703125,189.208984375,79.28466796875
24726.492300791,0.7156982421875,0.5196533203125,-1.1673583984375,-1.220703125,239.68505859375,79.28466796875
24726.492508208,0.7156982421875,0.5196533203125,-1.1673583984375,-1.220703125,239.68505859375,69.7021484375
24726.522401875,0.51708984375,0.5196533203125,-1.1673583984375,-1.220703125,239.68505859375,69.7021484375
24726.528188791,0.51708984375,0.4072265625,-1.1673583984375,-1.220703125,239.68505859375,69.7021484375
24726.528477416,0.51708984375,0.4072265625,-0.880615234375,-1.220703125,239.68505859375,69.7021484375
24726.528540041,0.51708984375,0.4072265625,-0.880615234375,1.89208984375,239.68505859375,69.7021484375
24726.582483708,0.3790283203125,0.4072265625,-0.880615234375,1.89208984375,239.68505859375,69.7021484375
24726.582734791,0.3790283203125,0.35205078125,-0.880615234375,1.89208984375,239.68505859375,69.7021484375
24726.582843458,0.3790283203125,0.35205078125,-0.9556884765625,1.89208984375,239.68505859375,69.7021484375
24726.59726775,0.3790283203125,0.35205078125,-0.9556884765625,1.89208984375,241.0888671875,69.7021484375
24726.597476208,0.3790283203125,0.35205078125,-0.9556884765625,1.89208984375,241.0888671875,55.84716796875
24726.627553333,0.08447265625,0.35205078125,-0.9556884765625,1.89208984375,241.0888671875,55.84716796875
24726.627786166,0.08447265625,0.343994140625,-0.9556884765625,1.89208984375,241.0888671875,55.84716796875
24726.628388833,0.08447265625,0.343994140625,-0.69580078125,1.89208984375,241.0888671875,55.84716796875
24726.628559625,0.08447265625,0.343994140625,-0.69580078125,5.18798828125,241.0888671875,55.84716796875
24726.657665041,-0.0037841796875,0.343994140625,-0.69580078125,5.18798828125,241.0888671875,55.84716796875
24726.658045416,-0.0037841796875,0.2979736328125,-0.69580078125,5.18798828125,241.0888671875,55.84716796875
24726.658290833,-0.0037841796875,0.2979736328125,-0.8621826171875,5.18798828125,241.0888671875,55.84716796875
24726.672447958,-0.0037841796875,0.2979736328125,-0.8621826171875,5.18798828125,212.646484375,55.84716796875
24726.672689416,-0.0037841796875,0.2979736328125,-0.8621826171875,5.18798828125,212.646484375,35.2783203125
24726.701292125,-0.2020263671875,0.2979736328125,-0.8621826171875,5.18798828125,212.646484375,35.2783203125
24726.703191083,-0.2020263671875,0.39990234375,-0.8621826171875,5.18798828125,212.646484375,35.2783203125
24726.7034255,-0.2020263671875,0.39990234375,-0.4598388671875,5.18798828125,212.646484375,35.2783203125
24726.703522375,-0.2020263671875,0.39990234375,-0.4598388671875,15.869140625,212.646484375,35.2783203125
24726.717250083,-0.255859375,0.39990234375,-0.4598388671875,15.869140625,212.646484375,35.2783203125
24726.717443791,-0.255859375,0.3084716796875,-0.4598388671875,15.869140625,212.646484375,35.2783203125
24726.717554875,-0.255859375,0.3084716796875,-0.5662841796875,15.869140625,212.646484375,35.2783203125
24726.732409333,-0.255859375,0.3084716796875,-0.5662841796875,15.869140625,182.9833984375,35.2783203125
24726.732560833,-0.255859375,0.3084716796875,-0.5662841796875,15.869140625,182.9833984375,33.87451171875
24726.747265625,-0.4359130859375,0.3084716796875,-0.5662841796875,15.869140625,182.9833984375,33.87451171875
24726.747475291,-0.4359130859375,0.2750244140625,-0.5662841796875,15.869140625,182.9833984375,33.87451171875
24726.747585208,-0.4359130859375,0.2750244140625,-0.388916015625,15.869140625,182.9833984375,33.87451171875
24726.762188,-0.4359130859375,0.2750244140625,-0.388916015625,15.869140625,163.57421875,33.87451171875
24726.762354666,-0.4359130859375,0.2750244140625,-0.388916015625,15.869140625,163.57421875,29.35791015625
24726.778557125,-0.457275390625,0.2750244140625,-0.388916015625,15.869140625,163.57421875,29.35791015625
24726.778640166,-0.457275390625,0.3076171875,-0.388916015625,15.869140625,163.57421875,29.35791015625
24726.778712833,-0.457275390625,0.3076171875,-0.3443603515625,15.869140625,163.57421875,29.35791015625
24726.795293416,-0.457275390625,0.3076171875,-0.3443603515625,15.869140625,145.32470703125,29.35791015625
24726.795376125,-0.457275390625,0.3076171875,-0.3443603515625,15.869140625,145.32470703125,28.50341796875
24726.812006291,-0.5511474609375,0.3076171875,-0.3443603515625,15.869140625,145.32470703125,28.50341796875
24726.812089291,-0.5511474609375,0.28515625,-0.3443603515625,15.869140625,145.32470703125,28.50341796875
24726.812161708,-0.5511474609375,0.28515625,-0.2119140625,15.869140625,145.32470703125,28.50341796875
24726.82235875,-0.5511474609375,0.28515625,-0.2119140625,15.869140625,131.4697265625,28.50341796875
24726.828144875,-0.5511474609375,0.28515625,-0.2119140625,15.869140625,131.4697265625,22.94921875
24726.837154541,-0.6363525390625,0.28515625,-0.2119140625,15.869140625,131.4697265625,22.94921875
24726.837317041,-0.6363525390625,0.2857666015625,-0.2119140625,15.869140625,131.4697265625,22.94921875
24726.837403666,-0.6363525390625,0.2857666015625,-0.02294921875,15.869140625,131.4697265625,22.94921875
24726.882321333,-0.6363525390625,0.2857666015625,-0.02294921875,15.869140625,111.87744140625,22.94921875
24726.882564583,-0.6363525390625,0.2857666015625,-0.02294921875,15.869140625,111.87744140625,25.08544921875
24726.882762083,-0.6737060546875,0.2857666015625,-0.02294921875,15.869140625,111.87744140625,25.08544921875
24726.912049291,-0.6737060546875,0.2857666015625,0.0711669921875,15.869140625,111.87744140625,25.08544921875
24726.91213225,-0.6737060546875,0.2857666015625,0.0711669921875,-6.7138671875,111.87744140625,25.08544921875
24726.91220475,-0.6737060546875,0.2857666015625,0.0711669921875,-6.7138671875,91.49169921875,25.08544921875
24726.928895875,-0.6937255859375,0.2857666015625,0.0711669921875,-6.7138671875,91.49169921875,25.08544921875
24726.928978583,-0.6937255859375,0.27734375,0.0711669921875,-6.7138671875,91.49169921875,25.08544921875
24726.929049833,-0.6937255859375,0.27734375,0.339599609375,-6.7138671875,91.49169921875,25.08544921875
24726.92912,-0.6937255859375,0.27734375,0.339599609375,-8.6669921875,91.49169921875,25.08544921875
24726.94500425,-0.674560546875,0.27734375,0.339599609375,-8.6669921875,91.49169921875,25.08544921875
24726.945085833,-0.674560546875,0.268798828125,0.339599609375,-8.6669921875,91.49169921875,25.08544921875
24726.94515675,-0.674560546875,0.268798828125,0.39208984375,-8.6669921875,91.49169921875,25.08544921875
24726.961660875,-0.674560546875,0.268798828125,0.39208984375,-8.6669921875,-9.82666015625,25.08544921875
24726.961746416,-0.674560546875,0.268798828125,0.39208984375,-8.6669921875,-9.82666015625,8.60595703125
24726.972267458,-0.60693359375,0.268798828125,0.39208984375,-8.6669921875,-9.82666015625,8.60595703125
24726.9783265,-0.60693359375,0.179443359375,0.39208984375,-8.6669921875,-9.82666015625,8.60595703125
24726.978443708,-0.60693359375,0.179443359375,0.3074951171875,-8.6669921875,-9.82666015625,8.60595703125
24726.987412958,-0.60693359375,0.179443359375,0.3074951171875,-8.6669921875,-70.1904296875,8.60595703125
24726.987581958,-0.60693359375,0.179443359375,0.3074951171875,-8.6669921875,-70.1904296875,-2.50244140625
24727.002408958,-0.5345458984375,0.179443359375,0.3074951171875,-8.6669921875,-70.1904296875,-2.50244140625
24727.00263425,-0.5345458984375,0.1617431640625,0.3074951171875,-8.6669921875,-70.1904296875,-2.50244140625
24727.002743125,-0.5345458984375,0.1617431640625,0.2745361328125,-8.6669921875,-70.1904296875,-2.50244140625
24727.017422375,-0.5345458984375,0.1617431640625,0.2745361328125,-8.6669921875,-112.24365234375,-2.50244140625
24727.017583,-0.5345458984375,0.1617431640625,0.2745361328125,-8.6669921875,-112.24365234375,-19.95849609375
24727.032655916,-0.427734375,0.1617431640625,0.2745361328125,-8.6669921875,-112.24365234375,-19.95849609375
24727.032807666,-0.427734375,0.14404296875,0.2745361328125,-8.6669921875,-112.24365234375,-19.95849609375
24727.03288375,-0.427734375,0.14404296875,0.1138916015625,-8.6669921875,-112.24365234375,-19.95849609375
24727.047415708,-0.427734375,0.14404296875,0.1138916015625,-8.6669921875,-161.56005859375,-19.95849609375
24727.04758475,-0.427734375,0.14404296875,0.1138916015625,-8.6669921875,-161.56005859375,-33.0810546875
24727.062380458,-0.362548828125,0.14404296875,0.1138916015625,-8.6669921875,-161.56005859375,-33.0810546875
24727.062568625,-0.362548828125,0.1553955078125,0.1138916015625,-8.6669921875,-161.56005859375,-33.0810546875
24727.062674291,-0.362548828125,0.1553955078125,-0.169189453125,-8.6669921875,-161.56005859375,-33.0810546875
24727.078287125,-0.362548828125,0.1553955078125,-0.169189453125,-8.6669921875,-205.26123046875,-33.0810546875
24727.0783825,-0.362548828125,0.1553955078125,-0.169189453125,-8.6669921875,-205.26123046875,-45.95947265625
24727.09495675,-0.3214111328125,0.1553955078125,-0.169189453125,-8.6669921875,-205.26123046875,-45.95947265625
24727.095036208,-0.3214111328125,0.1922607421875,-0.169189453125,-8.6669921875,-205.26123046875,-45.95947265625
24727.095099166,-0.3214111328125,0.1922607421875,-0.2894287109375,-8.6669921875,-205.26123046875,-45.95947265625
24727.111579083,-0.3214111328125,0.1922607421875,-0.2894287109375,-8.6669921875,-227.47802734375,-45.95947265625
24727.111651083,-0.3214111328125,0.1922607421875,-0.2894287109375,-8.6669921875,-227.47802734375,-52.001953125
24727.122370625,-0.2115478515625,0.1922607421875,-0.2894287109375,-8.6669921875,-227.47802734375,-52.001953125
24727.128139791,-0.2115478515625,0.54541015625,-0.2894287109375,-8.6669921875,-227.47802734375,-52.001953125
24727.128299875,-0.2115478515625,0.54541015625,-0.5555419921875,-8.6669921875,-227.47802734375,-52.001953125
24727.137416166,-0.2115478515625,0.54541015625,-0.5555419921875,-8.6669921875,-227.72216796875,-52.001953125
24727.137558583,-0.2115478515625,0.54541015625,-0.5555419921875,-8.6669921875,-227.72216796875,-55.0537109375
24727.182371375,-0.1300048828125,0.54541015625,-0.5555419921875,-8.6669921875,-227.72216796875,-55.0537109375
24727.182610791,-0.1300048828125,0.6400146484375,-0.5555419921875,-8.6669921875,-227.72216796875,-55.0537109375
24727.182739833,-0.1300048828125,0.6400146484375,-0.503173828125,-8.6669921875,-227.72216796875,-55.0537109375
24727.19771725,-0.1300048828125,0.6400146484375,-0.503173828125,-8.6669921875,-219.29931640625,-55.0537109375
24727.197926833,-0.1300048828125,0.6400146484375,-0.503173828125,-8.6669921875,-219.29931640625,-71.2890625
24727.227645166,0.1607666015625,0.6400146484375,-0.503173828125,-8.6669921875,-219.29931640625,-71.2890625
24727.227845,0.1607666015625,0.3385009765625,-0.503173828125,-8.6669921875,-219.29931640625,-71.2890625
24727.228487083,0.1607666015625,0.3385009765625,-1.1209716796875,-8.6669921875,-219.29931640625,-71.2890625
24727.228679,0.1607666015625,0.3385009765625,-1.1209716796875,-8.6669921875,-229.30908203125,-71.2890625
24727.257430416,0.32080078125,0.3385009765625,-1.1209716796875,-8.6669921875,-229.30908203125,-71.2890625
24727.257651291,0.32080078125,0.67919921875,-1.1209716796875,-8.6669921875,-229.30908203125,-71.2890625
24727.25818425,0.32080078125,0.67919921875,-0.947265625,-8.6669921875,-229.30908203125,-71.2890625
24727.258352166,0.32080078125,0.67919921875,-0.947265625,28.62548828125,-229.30908203125,-71.2890625
24727.287894208,0.494140625,0.67919921875,-0.947265625,28.62548828125,-229.30908203125,-71.2890625
24727.288096166,0.494140625,0.314453125,-0.947265625,28.62548828125,-229.30908203125,-71.2890625
24727.288399,0.494140625,0.314453125,-1.2049560546875,28.62548828125,-229.30908203125,-71.2890625
24727.28862775,0.494140625,0.314453125,-1.2049560546875,37.9638671875,-229.30908203125,-71.2890625
24727.317345083,0.5262451171875,0.314453125,-1.2049560546875,37.9638671875,-229.30908203125,-71.2890625
24727.321840916,0.5262451171875,0.5233154296875,-1.2049560546875,37.9638671875,-229.30908203125,-71.2890625
24727.321979208,0.5262451171875,0.5233154296875,-1.3065185546875,37.9638671875,-229.30908203125,-71.2890625
24727.332308833,0.5262451171875,0.5233154296875,-1.3065185546875,-116.2109375,-229.30908203125,-71.2890625
24727.347360416,0.592041015625,0.5233154296875,-1.3065185546875,-116.2109375,-229.30908203125,-71.2890625
24727.34755975,0.592041015625,1.0089111328125,-1.3065185546875,-116.2109375,-229.30908203125,-71.2890625
24727.347633083,0.592041015625,1.0089111328125,-1.0975341796875,-116.2109375,-229.30908203125,-71.2890625
24727.362356833,0.592041015625,1.0089111328125,-1.0975341796875,-116.2109375,-184.63134765625,-71.2890625
24727.362440583,0.592041015625,1.0089111328125,-1.0975341796875,-116.2109375,-184.63134765625,-58.16650390625
24727.392120208,0.7686767578125,1.0089111328125,-1.0975341796875,-116.2109375,-184.63134765625,-58.16650390625
24727.393684916,0.7686767578125,0.2333984375,-1.0975341796875,-116.2109375,-184.63134765625,-58.16650390625
24727.393946875,0.7686767578125,0.2333984375,-1.0157470703125,-116.2109375,-184.63134765625,-58.16650390625
24727.394101958,0.7686767578125,0.2333984375,-1.0157470703125,105.8349609375,-184.63134765625,-58.16650390625
24727.412177333,0.779052734375,0.2333984375,-1.0157470703125,105.8349609375,-184.63134765625,-58.16650390625
24727.412257333,0.779052734375,0.2999267578125,-1.0157470703125,105.8349609375,-184.63134765625,-58.16650390625
24727.437110916,0.779052734375,0.2999267578125,-1.027099609375,105.8349609375,-184.63134765625,-58.16650390625
24727.438477916,0.779052734375,0.2999267578125,-1.027099609375,105.8349609375,-164.306640625,-58.16650390625
24727.438683583,0.779052734375,0.2999267578125,-1.027099609375,105.8349609375,-164.306640625,-86.24267578125
24727.481499791,0.7978515625,0.2999267578125,-1.027099609375,105.8349609375,-164.306640625,-86.24267578125
24727.497308833,0.7978515625,0.7913818359375,-1.027099609375,105.8349609375,-164.306640625,-86.24267578125
24727.497561833,0.7978515625,0.7913818359375,-0.7852783203125,105.8349609375,-164.306640625,-86.24267578125
24727.497690208,0.7978515625,0.7913818359375,-0.7852783203125,105.8349609375,-164.306640625,-78.30810546875
24727.512934625,0.914794921875,0.7913818359375,-0.7852783203125,105.8349609375,-164.306640625,-78.30810546875
24727.5130655,0.914794921875,0.454833984375,-0.7852783203125,105.8349609375,-164.306640625,-78.30810546875
24727.513151791,0.914794921875,0.454833984375,-0.76171875,105.8349609375,-164.306640625,-78.30810546875
24727.529260208,0.914794921875,0.454833984375,-0.76171875,105.8349609375,-132.9345703125,-78.30810546875
24727.529354583,0.914794921875,0.454833984375,-0.76171875,105.8349609375,-132.9345703125,-73.3642578125
24727.572684208,0.9161376953125,0.454833984375,-0.76171875,105.8349609375,-132.9345703125,-73.3642578125
24727.573930458,0.9161376953125,0.634521484375,-0.76171875,105.8349609375,-132.9345703125,-73.3642578125
24727.574292083,0.9161376953125,0.634521484375,-0.643798828125,105.8349609375,-132.9345703125,-73.3642578125
24727.574417708,0.9161376953125,0.634521484375,-0.643798828125,5.06591796875,-132.9345703125,-73.3642578125
24727.601867625,0.9354248046875,0.634521484375,-0.643798828125,5.06591796875,-132.9345703125,-73.3642578125
24727.60283975,0.9354248046875,0.4935302734375,-0.643798828125,5.06591796875,-132.9345703125,-73.3642578125
24727.603049458,0.9354248046875,0.4935302734375,-0.6177978515625,5.06591796875,-132.9345703125,-73.3642578125
24727.6175515,0.9354248046875,0.4935302734375,-0.6177978515625,5.06591796875,-100.64697265625,-73.3642578125
24727.617732875,0.9354248046875,0.4935302734375,-0.6177978515625,5.06591796875,-100.64697265625,-52.55126953125
24727.661981333,0.896728515625,0.4935302734375,-0.6177978515625,5.06591796875,-100.64697265625,-52.55126953125
24727.663961875,0.896728515625,0.4393310546875,-0.6177978515625,5.06591796875,-100.64697265625,-52.55126953125
24727.66433775,0.896728515625,0.4393310546875,-0.5208740234375,5.06591796875,-100.64697265625,-52.55126953125
24727.664524166,0.896728515625,0.4393310546875,-0.5208740234375,9.3994140625,-100.64697265625,-52.55126953125
24727.69515675,0.904052734375,0.4393310546875,-0.5208740234375,9.3994140625,-100.64697265625,-52.55126953125
24727.695263666,0.904052734375,0.400634765625,-0.5208740234375,9.3994140625,-100.64697265625,-52.55126953125
24727.695338333,0.904052734375,0.400634765625,-0.4921875,9.3994140625,-100.64697265625,-52.55126953125
24727.712149583,0.904052734375,0.400634765625,-0.4921875,9.3994140625,-57.6171875,-52.55126953125
24727.722573166,0.8726806640625,0.400634765625,-0.4921875,9.3994140625,-57.6171875,-52.55126953125
24727.728057375,0.8726806640625,0.385498046875,-0.4921875,9.3994140625,-57.6171875,-52.55126953125
24727.728353166,0.8726806640625,0.385498046875,-0.460205078125,9.3994140625,-57.6171875,-52.55126953125
24727.7284275,0.8726806640625,0.385498046875,-0.460205078125,9.3994140625,-37.841796875,-52.55126953125
24727.738949333,0.8721923828125,0.385498046875,-0.460205078125,9.3994140625,-37.841796875,-52.55126953125
24727.744699833,0.8721923828125,0.328857421875,-0.460205078125,9.3994140625,-37.841796875,-52.55126953125
24727.744817458,0.8721923828125,0.328857421875,-0.41455078125,9.3994140625,-37.841796875,-52.55126953125
24727.784229833,0.8721923828125,0.328857421875,-0.41455078125,9.3994140625,-26.79443359375,-52.55126953125
24727.784318375,0.8721923828125,0.328857421875,-0.41455078125,9.3994140625,-26.79443359375,-9.521484375
24727.784390791,0.8612060546875,0.328857421875,-0.41455078125,9.3994140625,-26.79443359375,-9.521484375
24727.8114795,0.8612060546875,0.328857421875,-0.422607421875,9.3994140625,-26.79443359375,-9.521484375
24727.811568833,0.8612060546875,0.328857421875,-0.422607421875,-21.97265625,-26.79443359375,-9.521484375
24727.811642,0.8612060546875,0.328857421875,-0.422607421875,-21.97265625,-15.44189453125,-9.521484375
24727.812182541,0.854248046875,0.328857421875,-0.422607421875,-21.97265625,-15.44189453125,-9.521484375
24727.812352208,0.854248046875,0.3853759765625,-0.422607421875,-21.97265625,-15.44189453125,-9.521484375
24727.812446375,0.854248046875,0.3853759765625,-0.386474609375,-21.97265625,-15.44189453125,-9.521484375
24727.828393833,0.854248046875,0.3853759765625,-0.386474609375,-21.97265625,-6.89697265625,-9.521484375
24727.828457583,0.854248046875,0.3853759765625,-0.386474609375,-21.97265625,-6.89697265625,-1.220703125
24727.857293041,0.8681640625,0.3853759765625,-0.386474609375,-21.97265625,-6.89697265625,-1.220703125
24727.857488583,0.8681640625,0.299560546875,-0.386474609375,-21.97265625,-6.89697265625,-1.220703125
24727.857976375,0.8681640625,0.299560546875,-0.3521728515625,-21.97265625,-6.89697265625,-1.220703125
24727.873234208,0.8681640625,0.299560546875,-0.3521728515625,-7.8125,-6.89697265625,-1.220703125
24727.873486541,0.89892578125,0.299560546875,-0.3521728515625,-7.8125,-6.89697265625,-1.220703125
24727.873598041,0.89892578125,0.3450927734375,-0.3521728515625,-7.8125,-6.89697265625,-1.220703125
24727.873669833,0.89892578125,0.3450927734375,-0.38330078125,-7.8125,-6.89697265625,-1.220703125
NEW_REP,,,,,,
24727.911447416,0.89892578125,0.3450927734375,-0.38330078125,-7.8125,10.3759765625,-1.220703125
24727.911516416,0.89892578125,0.3450927734375,-0.38330078125,-7.8125,10.3759765625,6.89697265625
24727.932259583,0.9078369140625,0.3450927734375,-0.38330078125,-7.8125,10.3759765625,6.89697265625
24727.932386791,0.9078369140625,0.3662109375,-0.38330078125,-7.8125,10.3759765625,6.89697265625
24727.933097166,0.9078369140625,0.3662109375,-0.379638671875,-7.8125,10.3759765625,6.89697265625
24727.93320975,0.9078369140625,0.3662109375,-0.379638671875,7.2021484375,10.3759765625,6.89697265625
24727.947476708,0.902099609375,0.3662109375,-0.379638671875,7.2021484375,10.3759765625,6.89697265625
24727.947628708,0.902099609375,0.3035888671875,-0.379638671875,7.2021484375,10.3759765625,6.89697265625
24727.947718,0.902099609375,0.3035888671875,-0.40478515625,7.2021484375,10.3759765625,6.89697265625
24727.962162,0.902099609375,0.3035888671875,-0.40478515625,7.2021484375,20.99609375,6.89697265625
24727.962272416,0.902099609375,0.3035888671875,-0.40478515625,7.2021484375,20.99609375,13.18359375
24727.977840166,0.8458251953125,0.3035888671875,-0.40478515625,7.2021484375,20.99609375,13.18359375
24727.977898541,0.8458251953125,0.4024658203125,-0.40478515625,7.2021484375,20.99609375,13.18359375
24727.994103666,0.8458251953125,0.4024658203125,-0.461669921875,7.2021484375,20.99609375,13.18359375
24727.994160041,0.8458251953125,0.4024658203125,-0.461669921875,7.2021484375,32.2265625,13.18359375
24727.99421225,0.8458251953125,0.4024658203125,-0.461669921875,7.2021484375,32.2265625,25.0244140625
24728.082729291,0.890625,0.4024658203125,-0.461669921875,7.2021484375,32.2265625,25.0244140625
24728.083065083,0.890625,0.485107421875,-0.461669921875,7.2021484375,32.2265625,25.0244140625
24728.083203041,0.890625,0.485107421875,-0.6826171875,7.2021484375,32.2265625,25.0244140625
24728.083803708,0.890625,0.485107421875,-0.6826171875,7.2021484375,52.42919921875,25.0244140625
24728.098159166,0.9305419921875,0.485107421875,-0.6826171875,7.2021484375,52.42919921875,25.0244140625
24728.098681125,0.9305419921875,0.4373779296875,-0.6826171875,7.2021484375,52.42919921875,25.0244140625
24728.098849583,0.9305419921875,0.4373779296875,-0.85205078125,7.2021484375,52.42919921875,25.0244140625
24728.14342075,0.9305419921875,0.4373779296875,-0.85205078125,7.2021484375,65.3076171875,25.0244140625
24728.143843708,0.9305419921875,0.4373779296875,-0.85205078125,7.2021484375,65.3076171875,47.4853515625
24728.144019333,1.0433349609375,0.4373779296875,-0.85205078125,7.2021484375,65.3076171875,47.4853515625
24728.144134291,1.0433349609375,0.51806640625,-0.85205078125,7.2021484375,65.3076171875,47.4853515625
24728.162092291,1.0433349609375,0.51806640625,-0.85205078125,7.2021484375,171.69189453125,47.4853515625
24728.18899075,1.0433349609375,0.51806640625,-0.85205078125,7.2021484375,171.69189453125,70.9228515625
24728.189366375,1.00732421875,0.51806640625,-0.85205078125,7.2021484375,171.69189453125,70.9228515625
24728.189485708,1.00732421875,0.4764404296875,-0.85205078125,7.2021484375,171.69189453125,70.9228515625
24728.189571666,1.00732421875,0.4764404296875,-1.1534423828125,7.2021484375,171.69189453125,70.9228515625
24728.218594208,1.00732421875,0.4764404296875,-1.1534423828125,7.2021484375,202.2705078125,70.9228515625
24728.218843125,1.00732421875,0.4764404296875,-1.1534423828125,7.2021484375,202.2705078125,81.84814453125
24728.247261291,0.8507080078125,0.4764404296875,-1.1534423828125,7.2021484375,202.2705078125,81.84814453125
24728.247447708,0.8507080078125,0.44775390625,-1.1534423828125,7.2021484375,202.2705078125,81.84814453125
24728.248009875,0.8507080078125,0.44775390625,-1.1717529296875,7.2021484375,202.2705078125,81.84814453125
24728.250548875,0.6793212890625,0.44775390625,-1.1717529296875,7.2021484375,202.2705078125,81.84814453125
24728.263860791,0.6793212890625,0.44775390625,-0.9923095703125,7.2021484375,202.2705078125,81.84814453125
24728.278952125,0.6793212890625,0.44775390625,-0.9923095703125,-20.69091796875,202.2705078125,81.84814453125
24728.279051041,0.6793212890625,0.44775390625,-0.9923095703125,-20.69091796875,243.5302734375,81.84814453125
24728.279137916,0.572021484375,0.44775390625,-0.9923095703125,-20.69091796875,243.5302734375,81.84814453125
24728.2792225,0.572021484375,0.3487548828125,-0.9923095703125,-20.69091796875,243.5302734375,81.84814453125
24728.295710791,0.572021484375,0.3487548828125,-0.9923095703125,-20.69091796875,242.0654296875,81.84814453125
24728.29580875,0.572021484375,0.3487548828125,-0.9923095703125,-20.69091796875,242.0654296875,48.40087890625
24728.312522625,0.447509765625,0.3487548828125,-0.9923095703125,-20.69091796875,242.0654296875,48.40087890625
24728.312624416,0.447509765625,0.3563232421875,-0.9923095703125,-20.69091796875,242.0654296875,48.40087890625
24728.312712083,0.447509765625,0.3563232421875,-0.972412109375,-20.69091796875,242.0654296875,48.40087890625
24728.322567666,0.447509765625,0.3563232421875,-0.972412109375,-20.69091796875,231.75048828125,48.40087890625
24728.328866333,0.447509765625,0.3563232421875,-0.972412109375,-20.69091796875,231.75048828125,33.3251953125
24728.33752075,0.38720703125,0.3563232421875,-0.972412109375,-20.69091796875,231.75048828125,33.3251953125
24728.337780083,0.38720703125,0.39794921875,-0.972412109375,-20.69091796875,231.75048828125,33.3251953125
24728.33789425,0.38720703125,0.39794921875,-1.0255126953125,-20.69091796875,231.75048828125,33.3251953125
24728.382895291,0.38720703125,0.39794921875,-1.0255126953125,-20.69091796875,228.69873046875,33.3251953125
24728.383163291,0.38720703125,0.39794921875,-1.0255126953125,-20.69091796875,228.69873046875,30.3955078125
24728.383862958,0.2437744140625,0.39794921875,-1.0255126953125,-20.69091796875,228.69873046875,30.3955078125
24728.411946375,0.2437744140625,0.39794921875,-0.91259765625,-20.69091796875,228.69873046875,30.3955078125
24728.412025458,0.2437744140625,0.39794921875,-0.91259765625,-2.3193359375,228.69873046875,30.3955078125
24728.412096666,0.2437744140625,0.39794921875,-0.91259765625,-2.3193359375,225.76904296875,30.3955078125
24728.428943083,0.046630859375,0.39794921875,-0.91259765625,-2.3193359375,225.76904296875,30.3955078125
24728.429021375,0.046630859375,0.3377685546875,-0.91259765625,-2.3193359375,225.76904296875,30.3955078125
24728.429091416,0.046630859375,0.3377685546875,-0.9583740234375,-2.3193359375,225.76904296875,30.3955078125
24728.429160625,0.046630859375,0.3377685546875,-0.9583740234375,-21.17919921875,225.76904296875,30.3955078125
24728.444972916,-0.0128173828125,0.3377685546875,-0.9583740234375,-21.17919921875,225.76904296875,30.3955078125
24728.445052375,-0.0128173828125,0.3448486328125,-0.9583740234375,-21.17919921875,225.76904296875,30.3955078125
24728.445123166,-0.0128173828125,0.3448486328125,-0.8707275390625,-21.17919921875,225.76904296875,30.3955078125
24728.461560041,-0.0128173828125,0.3448486328125,-0.8707275390625,-21.17919921875,219.1162109375,30.3955078125
24728.4616405,-0.0128173828125,0.3448486328125,-0.8707275390625,-21.17919921875,219.1162109375,33.99658203125
24728.472538958,-0.12646484375,0.3448486328125,-0.8707275390625,-21.17919921875,219.1162109375,33.99658203125
24728.478233375,-0.12646484375,0.270751953125,-0.8707275390625,-21.17919921875,219.1162109375,33.99658203125
24728.47833775,-0.12646484375,0.270751953125,-0.605224609375,-21.17919921875,219.1162109375,33.99658203125
24728.487406833,-0.12646484375,0.270751953125,-0.605224609375,-21.17919921875,221.49658203125,33.99658203125
24728.487591666,-0.12646484375,0.270751953125,-0.605224609375,-21.17919921875,221.49658203125,30.8837890625
24728.502378708,-0.2723388671875,0.270751953125,-0.605224609375,-21.17919921875,221.49658203125,30.8837890625
24728.502577041,-0.2723388671875,0.2894287109375,-0.605224609375,-21.17919921875,221.49658203125,30.8837890625
24728.502685833,-0.2723388671875,0.2894287109375,-0.517578125,-21.17919921875,221.49658203125,30.8837890625
24728.517572166,-0.2723388671875,0.2894287109375,-0.517578125,-21.17919921875,228.02734375,30.8837890625
24728.517722708,-0.2723388671875,0.2894287109375,-0.517578125,-21.17919921875,228.02734375,27.587890625
24728.532406166,-0.373291015625,0.2894287109375,-0.517578125,-21.17919921875,228.02734375,27.587890625
24728.532608458,-0.373291015625,0.201416015625,-0.517578125,-21.17919921875,228.02734375,27.587890625
24728.532721166,-0.373291015625,0.201416015625,-0.349609375,-21.17919921875,228.02734375,27.587890625
24728.547447708,-0.373291015625,0.201416015625,-0.349609375,-21.17919921875,216.12548828125,27.587890625
24728.547612916,-0.373291015625,0.201416015625,-0.349609375,-21.17919921875,216.12548828125,31.92138671875
24728.562370833,-0.4266357421875,0.201416015625,-0.349609375,-21.17919921875,216.12548828125,31.92138671875
24728.562540333,-0.4266357421875,0.1376953125,-0.349609375,-21.17919921875,216.12548828125,31.92138671875
24728.563144541,-0.4266357421875,0.1376953125,-0.1861572265625,-21.17919921875,216.12548828125,31.92138671875
24728.578256291,-0.4266357421875,0.1376953125,-0.1861572265625,-21.17919921875,193.90869140625,31.92138671875
24728.578331916,-0.4266357421875,0.1376953125,-0.1861572265625,-21.17919921875,193.90869140625,27.4658203125
24728.595055166,-0.547607421875,0.1376953125,-0.1861572265625,-21.17919921875,193.90869140625,27.4658203125
24728.595132875,-0.547607421875,0.18115234375,-0.1861572265625,-21.17919921875,193.90869140625,27.4658203125
24728.595205375,-0.547607421875,0.18115234375,0.105712890625,-21.17919921875,193.90869140625,27.4658203125
24728.611574416,-0.547607421875,0.18115234375,0.105712890625,-21.17919921875,164.12353515625,27.4658203125
24728.611654458,-0.547607421875,0.18115234375,0.105712890625,-21.17919921875,164.12353515625,23.13232421875
24728.622533833,-0.61474609375,0.18115234375,0.105712890625,-21.17919921875,164.12353515625,23.13232421875
24728.628217083,-0.61474609375,0.220947265625,0.105712890625,-21.17919921875,164.12353515625,23.13232421875
24728.628334541,-0.61474609375,0.220947265625,0.1622314453125,-21.17919921875,164.12353515625,23.13232421875
24728.637786208,-0.61474609375,0.220947265625,0.1622314453125,-21.17919921875,136.8408203125,23.13232421875
24728.637944541,-0.61474609375,0.220947265625,0.1622314453125,-21.17919921875,136.8408203125,19.775390625
24728.682442458,-0.6729736328125,0.220947265625,0.1622314453125,-21.17919921875,136.8408203125,19.775390625
24728.682669416,-0.6729736328125,0.1751708984375,0.1622314453125,-21.17919921875,136.8408203125,19.775390625
24728.682798125,-0.6729736328125,0.1751708984375,0.327880859375,-21.17919921875,136.8408203125,19.775390625
24728.697305416,-0.6729736328125,0.1751708984375,0.327880859375,-21.17919921875,85.63232421875,19.775390625
24728.69748275,-0.6729736328125,0.1751708984375,0.327880859375,-21.17919921875,85.63232421875,15.2587890625
24728.727590333,-0.7315673828125,0.1751708984375,0.327880859375,-21.17919921875,85.63232421875,15.2587890625
24728.727768333,-0.7315673828125,0.2037353515625,0.327880859375,-21.17919921875,85.63232421875,15.2587890625
24728.728318583,-0.7315673828125,0.2037353515625,0.4246826171875,-21.17919921875,85.63232421875,15.2587890625
24728.728527583,-0.7315673828125,0.2037353515625,0.4246826171875,35.46142578125,85.63232421875,15.2587890625
24728.746011208,-0.700439453125,0.2037353515625,0.4246826171875,35.46142578125,85.63232421875,15.2587890625
24728.746109166,-0.700439453125,0.1883544921875,0.4246826171875,35.46142578125,85.63232421875,15.2587890625
24728.746195708,-0.700439453125,0.1883544921875,0.295654296875,35.46142578125,85.63232421875,15.2587890625
24728.762700583,-0.700439453125,0.1883544921875,0.295654296875,35.46142578125,-57.0068359375,15.2587890625
24728.762796416,-0.700439453125,0.1883544921875,0.295654296875,35.46142578125,-57.0068359375,-1.3427734375
24728.773260625,-0.66943359375,0.1883544921875,0.295654296875,35.46142578125,-57.0068359375,-1.3427734375
24728.778802166,-0.66943359375,0.1435546875,0.295654296875,35.46142578125,-57.0068359375,-1.3427734375
24728.778915791,-0.66943359375,0.1435546875,0.19873046875,35.46142578125,-57.0068359375,-1.3427734375
24728.789057041,-0.66943359375,0.1435546875,0.19873046875,35.46142578125,-92.71240234375,-1.3427734375
24728.795401375,-0.66943359375,0.1435546875,0.19873046875,35.46142578125,-92.71240234375,-8.1787109375
24728.804058708,-0.6041259765625,0.1435546875,0.19873046875,35.46142578125,-92.71240234375,-8.1787109375
24728.804282333,-0.6041259765625,0.1236572265625,0.19873046875,35.46142578125,-92.71240234375,-8.1787109375
24728.804418666,-0.6041259765625,0.1236572265625,0.1556396484375,35.46142578125,-92.71240234375,-8.1787109375
24728.819136333,-0.6041259765625,0.1236572265625,0.1556396484375,35.46142578125,-129.638671875,-8.1787109375
24728.819323208,-0.6041259765625,0.1236572265625,0.1556396484375,35.46142578125,-129.638671875,-14.95361328125
24728.834369166,-0.4874267578125,0.1236572265625,0.1556396484375,35.46142578125,-129.638671875,-14.95361328125
24728.834653083,-0.4874267578125,0.1221923828125,0.1556396484375,35.46142578125,-129.638671875,-14.95361328125
24728.834769666,-0.4874267578125,0.1221923828125,0.00634765625,35.46142578125,-129.638671875,-14.95361328125
24728.847475583,-0.4874267578125,0.1221923828125,0.00634765625,35.46142578125,-163.14697265625,-14.95361328125
24728.84763875,-0.4874267578125,0.1221923828125,0.00634765625,35.46142578125,-163.14697265625,-24.47509765625
24728.877613625,-0.413818359375,0.1221923828125,0.00634765625,35.46142578125,-163.14697265625,-24.47509765625
24728.8778075,-0.413818359375,0.0869140625,0.00634765625,35.46142578125,-163.14697265625,-24.47509765625
24728.879182833,-0.413818359375,0.0869140625,-0.0655517578125,35.46142578125,-163.14697265625,-24.47509765625
24728.879422916,-0.413818359375,0.0869140625,-0.0655517578125,35.46142578125,-190.5517578125,-24.47509765625
24728.895711458,-0.3336181640625,0.0869140625,-0.0655517578125,35.46142578125,-190.5517578125,-24.47509765625
24728.89579125,-0.3336181640625,0.0740966796875,-0.0655517578125,35.46142578125,-190.5517578125,-24.47509765625
24728.896936583,-0.3336181640625,0.0740966796875,-0.4383544921875,35.46142578125,-190.5517578125,-24.47509765625
24728.912716958,-0.3336181640625,0.0740966796875,-0.4383544921875,35.46142578125,-223.6328125,-24.47509765625
24728.91279475,-0.3336181640625,0.0740966796875,-0.4383544921875,35.46142578125,-223.6328125,-47.119140625
24728.923117125,-0.2926025390625,0.0740966796875,-0.4383544921875,35.46142578125,-223.6328125,-47.119140625
24728.928812708,-0.2926025390625,0.4093017578125,-0.4383544921875,35.46142578125,-223.6328125,-47.119140625
24728.928926375,-0.2926025390625,0.4093017578125,-0.483154296875,35.46142578125,-223.6328125,-47.119140625
24728.937597541,-0.2926025390625,0.4093017578125,-0.483154296875,35.46142578125,-249.1455078125,-47.119140625
24728.937758833,-0.2926025390625,0.4093017578125,-0.483154296875,35.46142578125,-249.1455078125,-44.12841796875
24728.983180875,-0.1212158203125,0.4093017578125,-0.483154296875,35.46142578125,-249.1455078125,-44.12841796875
24728.983482625,-0.1212158203125,0.65478515625,-0.483154296875,35.46142578125,-249.1455078125,-44.12841796875
24728.983584708,-0.1212158203125,0.65478515625,-0.5294189453125,35.46142578125,-249.1455078125,-44.12841796875
24728.998332666,-0.1212158203125,0.65478515625,-0.5294189453125,35.46142578125,-230.89599609375,-44.12841796875
24728.998560875,-0.1212158203125,0.65478515625,-0.5294189453125,35.46142578125,-230.89599609375,-35.70556640625
24729.01404275,0.0946044921875,0.65478515625,-0.5294189453125,35.46142578125,-230.89599609375,-35.70556640625
24729.014261791,0.0946044921875,0.3634033203125,-0.5294189453125,35.46142578125,-230.89599609375,-35.70556640625
24729.014386666,0.0946044921875,0.3634033203125,-1.14794921875,35.46142578125,-230.89599609375,-35.70556640625
24729.029167583,0.0946044921875,0.3634033203125,-1.14794921875,35.46142578125,-247.37548828125,-35.70556640625
24729.029258291,0.0946044921875,0.3634033203125,-1.14794921875,35.46142578125,-247.37548828125,-74.70703125
24729.057595875,0.1904296875,0.3634033203125,-1.14794921875,35.46142578125,-247.37548828125,-74.70703125
24729.057778458,0.1904296875,0.8502197265625,-1.14794921875,35.46142578125,-247.37548828125,-74.70703125
24729.058697625,0.1904296875,0.8502197265625,-0.73876953125,35.46142578125,-247.37548828125,-74.70703125
24729.058857541,0.1904296875,0.8502197265625,-0.73876953125,28.99169921875,-247.37548828125,-74.70703125
24729.118830666,0.4407958984375,0.8502197265625,-0.73876953125,28.99169921875,-247.37548828125,-74.70703125
24729.12507925,0.4407958984375,0.203857421875,-0.73876953125,28.99169921875,-247.37548828125,-74.70703125
24729.146585083,0.4407958984375,0.203857421875,-1.3502197265625,28.99169921875,-247.37548828125,-74.70703125
24729.162549333,0.4407958984375,0.203857421875,-1.3502197265625,63.1103515625,-247.37548828125,-74.70703125
24729.179700916,0.4407958984375,0.203857421875,-1.7008056640625,63.1103515625,-247.37548828125,-74.70703125
24729.221886041,0.4407958984375,0.203857421875,-1.7008056640625,-58.837890625,-247.37548828125,-74.70703125
24729.223515458,0.4407958984375,0.203857421875,-1.7008056640625,-58.837890625,-247.37548828125,-75.13427734375
24729.223838708,0.7138671875,0.203857421875,-1.7008056640625,-58.837890625,-247.37548828125,-75.13427734375
24729.224001291,0.7138671875,0.14208984375,-1.7008056640625,-58.837890625,-247.37548828125,-75.13427734375
24729.245967666,0.7138671875,0.14208984375,-1.7008056640625,-58.837890625,-247.37548828125,-60.72998046875
24729.282285875,0.7115478515625,0.14208984375,-1.7008056640625,-58.837890625,-247.37548828125,-60.72998046875
24729.298649333,0.7115478515625,0.9208984375,-1.7008056640625,-58.837890625,-247.37548828125,-60.72998046875
24729.303378166,0.7115478515625,0.9208984375,-0.9071044921875,-58.837890625,-247.37548828125,-60.72998046875
24729.303597291,0.7115478515625,0.9208984375,-0.9071044921875,-58.837890625,-122.55859375,-60.72998046875
24729.303688833,0.7115478515625,0.9208984375,-0.9071044921875,-58.837890625,-122.55859375,-50.96435546875
24729.32871225,0.684814453125,0.9208984375,-0.9071044921875,-58.837890625,-122.55859375,-50.96435546875
24729.328795541,0.684814453125,0.3248291015625,-0.9071044921875,-58.837890625,-122.55859375,-50.96435546875
24729.328867166,0.684814453125,0.3248291015625,-0.7423095703125,-58.837890625,-122.55859375,-50.96435546875
24729.357185583,0.684814453125,0.3248291015625,-0.7423095703125,82.33642578125,-122.55859375,-50.96435546875
24729.357368416,0.7276611328125,0.3248291015625,-0.7423095703125,82.33642578125,-122.55859375,-50.96435546875
24729.358021,0.7276611328125,0.3526611328125,-0.7423095703125,82.33642578125,-122.55859375,-50.96435546875
24729.37887925,0.7276611328125,0.3526611328125,-0.7423095703125,37.2314453125,-122.55859375,-50.96435546875
24729.378962666,0.7276611328125,0.3526611328125,-0.7423095703125,37.2314453125,-81.48193359375,-50.96435546875
24729.379035083,0.7276611328125,0.3526611328125,-0.7423095703125,37.2314453125,-81.48193359375,-58.16650390625
24729.403149333,0.828369140625,0.3526611328125,-0.7423095703125,37.2314453125,-81.48193359375,-58.16650390625
24729.403331708,0.828369140625,0.529541015625,-0.7423095703125,37.2314453125,-81.48193359375,-58.16650390625
24729.403899833,0.828369140625,0.529541015625,-0.529296875,37.2314453125,-81.48193359375,-58.16650390625
24729.404082625,0.828369140625,0.529541015625,-0.529296875,51.8798828125,-81.48193359375,-58.16650390625
24729.419109791,0.927734375,0.529541015625,-0.529296875,51.8798828125,-81.48193359375,-58.16650390625
24729.41933425,0.927734375,0.3912353515625,-0.529296875,51.8798828125,-81.48193359375,-58.16650390625
24729.419445875,0.927734375,0.3912353515625,-0.6387939453125,51.8798828125,-81.48193359375,-58.16650390625
24729.462097708,0.927734375,0.3912353515625,-0.6387939453125,51.8798828125,-117.431640625,-58.16650390625
24729.464546791,0.927734375,0.3912353515625,-0.6387939453125,51.8798828125,-117.431640625,-63.65966796875
24729.464880333,0.9552001953125,0.3912353515625,-0.6387939453125,51.8798828125,-117.431640625,-63.65966796875
24729.465017166,0.9552001953125,0.4344482421875,-0.6387939453125,51.8798828125,-117.431640625,-63.65966796875
24729.495315375,0.9552001953125,0.4344482421875,-0.6387939453125,51.8798828125,-123.53515625,-63.65966796875
24729.495406083,0.9552001953125,0.4344482421875,-0.6387939453125,51.8798828125,-123.53515625,-64.3310546875
24729.495482875,0.9378662109375,0.4344482421875,-0.6387939453125,51.8798828125,-123.53515625,-64.3310546875
24729.495553666,0.9378662109375,0.4295654296875,-0.6387939453125,51.8798828125,-123.53515625,-64.3310546875
24729.495623333,0.9378662109375,0.4295654296875,-0.5538330078125,51.8798828125,-123.53515625,-64.3310546875
24729.52143925,0.9378662109375,0.4295654296875,-0.5538330078125,51.8798828125,-82.6416015625,-64.3310546875
24729.538342458,0.9378662109375,0.4295654296875,-0.5538330078125,51.8798828125,-82.6416015625,-40.71044921875
24729.545001541,0.888916015625,0.4295654296875,-0.5538330078125,51.8798828125,-82.6416015625,-40.71044921875
24729.545125166,0.888916015625,0.4407958984375,-0.5538330078125,51.8798828125,-82.6416015625,-40.71044921875
24729.545197708,0.888916015625,0.4407958984375,-0.5538330078125,51.8798828125,-58.349609375,-40.71044921875
24729.582828166,0.82568359375,0.4407958984375,-0.5538330078125,51.8798828125,-58.349609375,-40.71044921875
24729.58308825,0.82568359375,0.4638671875,-0.5538330078125,51.8798828125,-58.349609375,-40.71044921875
24729.587304208,0.82568359375,0.4638671875,-0.50244140625,51.8798828125,-58.349609375,-40.71044921875
24729.601614916,0.82568359375,0.4638671875,-0.50244140625,51.8798828125,-27.03857421875,-40.71044921875
24729.601708166,0.82568359375,0.4638671875,-0.50244140625,51.8798828125,-27.03857421875,-10.55908203125
24729.627383333,0.8756103515625,0.4638671875,-0.50244140625,51.8798828125,-27.03857421875,-10.55908203125
24729.64445175,0.8756103515625,0.376220703125,-0.50244140625,51.8798828125,-27.03857421875,-10.55908203125
24729.644699166,0.8756103515625,0.376220703125,-0.43798828125,51.8798828125,-27.03857421875,-10.55908203125
24729.661273083,0.8756103515625,0.376220703125,-0.43798828125,-4.21142578125,-27.03857421875,-10.55908203125
24729.661352333,0.856689453125,0.376220703125,-0.43798828125,-4.21142578125,-27.03857421875,-10.55908203125
24729.661423208,0.856689453125,0.3675537109375,-0.43798828125,-4.21142578125,-27.03857421875,-10.55908203125
24729.661491375,0.856689453125,0.3675537109375,-0.4227294921875,-4.21142578125,-27.03857421875,-10.55908203125
24729.687653291,0.856689453125,0.3675537109375,-0.4227294921875,-4.21142578125,12.5732421875,-10.55908203125
24729.687821583,0.856689453125,0.3675537109375,-0.4227294921875,-4.21142578125,12.5732421875,6.4697265625
24729.703317083,0.863037109375,0.3675537109375,-0.4227294921875,-4.21142578125,12.5732421875,6.4697265625
24729.718557583,0.863037109375,0.367431640625,-0.4227294921875,-4.21142578125,12.5732421875,6.4697265625
24729.718754875,0.863037109375,0.367431640625,-0.4227294921875,-4.21142578125,10.009765625,6.4697265625
24729.718865458,0.863037109375,0.367431640625,-0.4227294921875,-4.21142578125,10.009765625,4.94384765625
24729.733903416,0.865234375,0.367431640625,-0.4227294921875,-4.21142578125,10.009765625,4.94384765625
24729.7476885,0.865234375,0.367431640625,-0.4227294921875,4.08935546875,10.009765625,4.94384765625
24729.747879583,0.865234375,0.367431640625,-0.4227294921875,4.08935546875,14.0380859375,4.94384765625
24729.747985833,0.865234375,0.367431640625,-0.4227294921875,4.08935546875,14.0380859375,5.55419921875
24729.7484065,0.8843994140625,0.367431640625,-0.4227294921875,4.08935546875,14.0380859375,5.55419921875
24729.762382083,0.8843994140625,0.367431640625,-0.4227294921875,6.28662109375,14.0380859375,5.55419921875
24729.762457458,0.8843994140625,0.367431640625,-0.4227294921875,6.28662109375,16.2353515625,5.55419921875
24729.762634125,0.8843994140625,0.367431640625,-0.4227294921875,6.28662109375,16.2353515625,7.4462890625
NEW_REP,,,,,,
24729.807835666,0.864013671875,0.367431640625,-0.4227294921875,6.28662109375,16.2353515625,7.4462890625
24729.807999041,0.864013671875,0.356689453125,-0.4227294921875,6.28662109375,16.2353515625,7.4462890625
24729.8283335,0.864013671875,0.356689453125,-0.569091796875,6.28662109375,16.2353515625,7.4462890625
24729.839178708,0.864013671875,0.356689453125,-0.569091796875,6.28662109375,23.62060546875,7.4462890625
24729.844964708,0.837890625,0.356689453125,-0.569091796875,6.28662109375,23.62060546875,7.4462890625
24729.845064291,0.837890625,0.4503173828125,-0.569091796875,6.28662109375,23.62060546875,7.4462890625
24729.882870083,0.837890625,0.4503173828125,-0.569091796875,-23.25439453125,23.62060546875,7.4462890625
24729.898568833,0.837890625,0.4503173828125,-0.569091796875,-23.25439453125,42.66357421875,7.4462890625
24729.898741166,0.837890625,0.4503173828125,-0.569091796875,-23.25439453125,42.66357421875,21.3623046875
24729.900402125,0.837890625,0.4676513671875,-0.569091796875,-23.25439453125,42.66357421875,21.3623046875
24729.900554041,0.837890625,0.4676513671875,-0.965087890625,-23.25439453125,42.66357421875,21.3623046875
24729.914254791,0.837890625,0.4676513671875,-0.965087890625,-23.25439453125,101.4404296875,21.3623046875
24729.9144195,0.837890625,0.4676513671875,-0.965087890625,-23.25439453125,101.4404296875,54.443359375
24729.97185275,1.023681640625,0.4676513671875,-0.965087890625,-23.25439453125,101.4404296875,54.443359375
24729.987547875,1.023681640625,0.6475830078125,-0.965087890625,-23.25439453125,101.4404296875,54.443359375
24729.995588416,1.023681640625,0.6475830078125,-1.13330078125,-23.25439453125,101.4404296875,54.443359375
24729.9957075,1.023681640625,0.6475830078125,-1.13330078125,-28.3203125,101.4404296875,54.443359375
24730.002667041,1.0609130859375,0.6475830078125,-1.13330078125,-28.3203125,101.4404296875,54.443359375
24730.002923041,1.0609130859375,0.6475830078125,-1.115478515625,-28.3203125,101.4404296875,54.443359375
24730.003052875,1.0609130859375,0.6475830078125,-1.115478515625,-28.38134765625,101.4404296875,54.443359375
24730.003524041,1.0609130859375,0.6475830078125,-1.115478515625,-28.38134765625,194.39697265625,54.443359375
24730.03238275,0.831787109375,0.6475830078125,-1.115478515625,-28.38134765625,194.39697265625,54.443359375
24730.032558833,0.831787109375,0.5079345703125,-1.115478515625,-28.38134765625,194.39697265625,54.443359375
24730.033148208,0.831787109375,0.5079345703125,-1.248779296875,-28.38134765625,194.39697265625,54.443359375
24730.061914833,0.831787109375,0.5079345703125,-1.248779296875,-64.88037109375,194.39697265625,54.443359375
24730.093949625,0.723876953125,0.5079345703125,-1.248779296875,-64.88037109375,194.39697265625,54.443359375
24730.093994916,0.723876953125,0.55615234375,-1.248779296875,-64.88037109375,194.39697265625,54.443359375
24730.094031125,0.723876953125,0.55615234375,-1.23291015625,-64.88037109375,194.39697265625,54.443359375
24730.094066791,0.723876953125,0.55615234375,-1.23291015625,-64.88037109375,252.44140625,54.443359375
24730.112355416,0.5360107421875,0.55615234375,-1.23291015625,-64.88037109375,252.44140625,54.443359375
24730.112445791,0.5360107421875,0.36474609375,-1.23291015625,-64.88037109375,252.44140625,54.443359375
24730.112520375,0.5360107421875,0.36474609375,-1.0631103515625,-64.88037109375,252.44140625,54.443359375
24730.112594916,0.5360107421875,0.36474609375,-1.0631103515625,-10.986328125,252.44140625,54.443359375
24730.122385375,0.3726806640625,0.36474609375,-1.0631103515625,-10.986328125,252.44140625,54.443359375
24730.128470375,0.3726806640625,0.31201171875,-1.0631103515625,-10.986328125,252.44140625,54.443359375
