Timestamp,Accel_X,Accel_Y,Accel_Z,Gyro_X,Gyro_Y,Gyro_Z
21009.946064833,-0.2635498046875,0.0,0.0,0.0,0.0,0.0
21009.946379791,-0.277587890625,0.0,0.0,0.0,0.0,0.0
21009.990661041,-0.232177734375,0.0,0.0,0.0,0.0,0.0
21009.990764541,-0.232177734375,0.3692626953125,0.0,0.0,0.0,0.0
21010.015633625,-0.158935546875,0.3692626953125,0.0,0.0,0.0,0.0
21010.0156865,-0.158935546875,0.42236328125,0.0,0.0,0.0,0.0
21010.020928,-0.0059814453125,0.42236328125,0.0,0.0,0.0,0.0
21010.021043625,-0.0059814453125,0.382568359375,0.0,0.0,0.0,0.0
21010.051518541,0.06396484375,0.382568359375,0.0,0.0,0.0,0.0
21010.051684333,0.06396484375,0.4091796875,0.0,0.0,0.0,0.0
21010.051737625,0.06396484375,0.4091796875,0.87060546875,0.0,0.0,0.0
21010.066119333,0.1343994140625,0.4091796875,0.87060546875,0.0,0.0,0.0
21010.066176625,0.1343994140625,0.506103515625,0.87060546875,0.0,0.0,0.0
21010.127006958,0.1395263671875,0.506103515625,0.87060546875,0.0,0.0,0.0
21010.12737375,0.1395263671875,0.4957275390625,0.87060546875,0.0,0.0,0.0
21010.127487,0.1395263671875,0.4957275390625,0.87353515625,0.0,0.0,0.0
21010.140984333,0.176513671875,0.4957275390625,0.87353515625,0.0,0.0,0.0
21010.141075208,0.176513671875,0.41943359375,0.87353515625,0.0,0.0,0.0
21010.156183291,0.176513671875,0.41943359375,0.87353515625,3.5400390625,0.0,0.0
21010.156326083,0.176513671875,0.41943359375,0.87353515625,3.5400390625,52.978515625,0.0
21010.185240875,0.0928955078125,0.41943359375,0.87353515625,3.5400390625,52.978515625,0.0
21010.185875583,0.0928955078125,0.64599609375,0.87353515625,3.5400390625,52.978515625,0.0
21010.201279541,0.0928955078125,0.64599609375,0.87353515625,3.5400390625,56.640625,0.0
21010.201609083,0.0928955078125,0.64599609375,0.87353515625,3.5400390625,56.640625,-54.19921875
21010.216639666,-0.0247802734375,0.64599609375,0.87353515625,3.5400390625,56.640625,-54.19921875
21010.216717583,-0.0247802734375,-0.2554931640625,0.87353515625,3.5400390625,56.640625,-54.19921875
21010.216781041,-0.0247802734375,-0.2554931640625,0.76513671875,3.5400390625,56.640625,-54.19921875
21010.233247458,-0.0247802734375,-0.2554931640625,0.76513671875,3.5400390625,-5.859375,-54.19921875
21010.233316083,-0.0247802734375,-0.2554931640625,0.76513671875,3.5400390625,-5.859375,6.16455078125
21010.261117291,-0.0035400390625,-0.2554931640625,0.76513671875,3.5400390625,-5.859375,6.16455078125
21010.262500708,-0.0035400390625,0.3046875,0.76513671875,3.5400390625,-5.859375,6.16455078125
21010.262746833,-0.0035400390625,0.3046875,0.7572021484375,3.5400390625,-5.859375,6.16455078125
21010.26288025,-0.0035400390625,0.3046875,0.7572021484375,-35.5224609375,-5.859375,6.16455078125
21010.283561791,-0.0721435546875,0.3046875,0.7572021484375,-35.5224609375,-5.859375,6.16455078125
21010.283642875,-0.0721435546875,0.2303466796875,0.7572021484375,-35.5224609375,-5.859375,6.16455078125
21010.283715833,-0.0721435546875,0.2303466796875,0.8033447265625,-35.5224609375,-5.859375,6.16455078125
21010.336393333,-0.0721435546875,0.2303466796875,0.8033447265625,-35.5224609375,9.033203125,6.16455078125
21010.336776375,-0.0721435546875,0.2303466796875,0.8033447265625,-35.5224609375,9.033203125,4.638671875
21010.336942583,-0.0567626953125,0.2303466796875,0.8033447265625,-35.5224609375,9.033203125,4.638671875
21010.33705675,-0.0567626953125,0.447265625,0.8033447265625,-35.5224609375,9.033203125,4.638671875
21010.366949041,-0.0567626953125,0.447265625,0.8033447265625,-35.5224609375,9.33837890625,4.638671875
21010.367038791,-0.0567626953125,0.447265625,0.8033447265625,-35.5224609375,9.33837890625,12.02392578125
21010.425979416,-0.0579833984375,0.447265625,0.8033447265625,-35.5224609375,9.33837890625,12.02392578125
21010.426195625,-0.0579833984375,0.373046875,0.8033447265625,-35.5224609375,9.33837890625,12.02392578125
21010.426517666,-0.0579833984375,0.373046875,0.8741455078125,-35.5224609375,9.33837890625,12.02392578125
21010.426772541,-0.0579833984375,0.373046875,0.8741455078125,1.89208984375,9.33837890625,12.02392578125
21010.450158291,-0.054443359375,0.373046875,0.8741455078125,1.89208984375,9.33837890625,12.02392578125
21010.450231833,-0.054443359375,0.3660888671875,0.8741455078125,1.89208984375,9.33837890625,12.02392578125
21010.450297583,-0.054443359375,0.3660888671875,0.9427490234375,1.89208984375,9.33837890625,12.02392578125
21010.469996083,-0.054443359375,0.3660888671875,0.9427490234375,1.89208984375,2.99072265625,12.02392578125
21010.470634958,-0.054443359375,0.3660888671875,0.9427490234375,1.89208984375,2.99072265625,5.55419921875
21010.485892541,-0.0286865234375,0.3660888671875,0.9427490234375,1.89208984375,2.99072265625,5.55419921875
21010.486109708,-0.0286865234375,0.215576171875,0.9427490234375,1.89208984375,2.99072265625,5.55419921875
21010.486209791,-0.0286865234375,0.215576171875,0.951416015625,1.89208984375,2.99072265625,5.55419921875
21010.530908458,-0.0245361328125,0.215576171875,0.951416015625,1.89208984375,2.99072265625,5.55419921875
21010.531156833,-0.0245361328125,0.211669921875,0.951416015625,1.89208984375,2.99072265625,5.55419921875
21010.531541708,-0.0245361328125,0.211669921875,0.95263671875,1.89208984375,2.99072265625,5.55419921875
21010.531796625,-0.0245361328125,0.211669921875,0.95263671875,9.27734375,2.99072265625,5.55419921875
21010.55041725,-0.0263671875,0.211669921875,0.95263671875,9.27734375,2.99072265625,5.55419921875
21010.550487083,-0.0263671875,0.2330322265625,0.95263671875,9.27734375,2.99072265625,5.55419921875
21010.550548416,-0.0263671875,0.2330322265625,0.93603515625,9.27734375,2.99072265625,5.55419921875
21010.56071625,-0.0263671875,0.2330322265625,0.93603515625,9.27734375,1.3427734375,5.55419921875
21010.567048458,-0.0263671875,0.2330322265625,0.93603515625,9.27734375,1.3427734375,7.4462890625
21010.575911666,-0.0364990234375,0.2330322265625,0.93603515625,9.27734375,1.3427734375,7.4462890625
21010.576101291,-0.0364990234375,0.2789306640625,0.93603515625,9.27734375,1.3427734375,7.4462890625
21010.576172041,-0.0364990234375,0.2789306640625,0.924072265625,9.27734375,1.3427734375,7.4462890625
21010.590729583,-0.0364990234375,0.2789306640625,0.924072265625,9.27734375,0.3662109375,7.4462890625
21010.590876625,-0.0364990234375,0.2789306640625,0.924072265625,9.27734375,0.3662109375,7.99560546875
21010.605827333,-0.041748046875,0.2789306640625,0.924072265625,9.27734375,0.3662109375,7.99560546875
21010.605908416,-0.041748046875,0.2891845703125,0.924072265625,9.27734375,0.3662109375,7.99560546875
21010.606056083,-0.041748046875,0.2891845703125,0.930419921875,9.27734375,0.3662109375,7.99560546875
21010.620787375,-0.041748046875,0.2891845703125,0.930419921875,9.27734375,1.0986328125,7.99560546875
21010.620924208,-0.041748046875,0.2891845703125,0.930419921875,9.27734375,1.0986328125,7.38525390625
21010.635661041,-0.028076171875,0.2891845703125,0.930419921875,9.27734375,1.0986328125,7.38525390625
21010.635839541,-0.028076171875,0.2803955078125,0.930419921875,9.27734375,1.0986328125,7.38525390625
21010.635934375,-0.028076171875,0.2803955078125,0.9339599609375,9.27734375,1.0986328125,7.38525390625
21010.650511166,-0.028076171875,0.2803955078125,0.9339599609375,9.27734375,1.15966796875,7.38525390625
21010.666711041,-0.028076171875,0.2803955078125,0.9339599609375,9.27734375,1.15966796875,5.55419921875
21010.741323458,-0.0240478515625,0.2803955078125,0.9339599609375,9.27734375,1.15966796875,5.55419921875
21010.741671541,-0.0240478515625,0.2528076171875,0.9339599609375,9.27734375,1.15966796875,5.55419921875
21010.741836416,-0.0240478515625,0.2528076171875,0.92578125,9.27734375,1.15966796875,5.55419921875
21010.742062958,-0.0240478515625,0.2528076171875,0.92578125,9.27734375,1.5869140625,5.55419921875
21010.771099958,-0.011474609375,0.2528076171875,0.92578125,9.27734375,1.5869140625,5.55419921875
21010.771477875,-0.011474609375,0.24072265625,0.92578125,9.27734375,1.5869140625,5.55419921875
21010.771818666,-0.011474609375,0.24072265625,0.92724609375,9.27734375,1.5869140625,5.55419921875
21010.772001125,-0.011474609375,0.24072265625,0.92724609375,9.27734375,0.91552734375,5.55419921875
21010.800743125,0.0960693359375,0.24072265625,0.92724609375,9.27734375,0.91552734375,5.55419921875
21010.800945541,0.0960693359375,0.248779296875,0.92724609375,9.27734375,0.91552734375,5.55419921875
21010.801452458,0.0960693359375,0.248779296875,1.13134765625,9.27734375,0.91552734375,5.55419921875
21010.801596666,0.0960693359375,0.248779296875,1.13134765625,-81.48193359375,0.91552734375,5.55419921875
21010.817431208,0.2203369140625,0.248779296875,1.13134765625,-81.48193359375,0.91552734375,5.55419921875
21010.833784166,0.2203369140625,0.42626953125,1.13134765625,-81.48193359375,0.91552734375,5.55419921875
21010.833864875,0.2203369140625,0.42626953125,1.14599609375,-81.48193359375,0.91552734375,5.55419921875
21010.833936833,0.2203369140625,0.42626953125,1.14599609375,-81.48193359375,-36.0107421875,5.55419921875
21010.859981291,0.162841796875,0.42626953125,1.14599609375,-81.48193359375,-36.0107421875,5.55419921875
21010.875941916,0.162841796875,0.629150390625,1.14599609375,-81.48193359375,-36.0107421875,5.55419921875
21010.876158958,0.162841796875,0.629150390625,0.75439453125,-81.48193359375,-36.0107421875,5.55419921875
21010.876271375,0.162841796875,0.629150390625,0.75439453125,-309.63134765625,-36.0107421875,5.55419921875
21010.876750041,0.063720703125,0.629150390625,0.75439453125,-309.63134765625,-36.0107421875,5.55419921875
21010.890670625,0.063720703125,0.629150390625,0.64892578125,-309.63134765625,-36.0107421875,5.55419921875
21010.890889833,0.063720703125,0.629150390625,0.64892578125,-339.84375,-36.0107421875,5.55419921875
21010.891008583,0.063720703125,0.629150390625,0.64892578125,-339.84375,-65.5517578125,5.55419921875
21010.905899375,-0.088623046875,0.629150390625,0.64892578125,-339.84375,-65.5517578125,5.55419921875
21010.906115208,-0.088623046875,1.001220703125,0.64892578125,-339.84375,-65.5517578125,5.55419921875
21010.906243291,-0.088623046875,1.001220703125,0.50732421875,-339.84375,-65.5517578125,5.55419921875
21010.949850583,-0.088623046875,1.001220703125,0.50732421875,-339.84375,-53.03955078125,5.55419921875
21010.967200916,-0.088623046875,1.001220703125,0.50732421875,-339.84375,-53.03955078125,42.66357421875
21010.967286875,-0.1600341796875,1.001220703125,0.50732421875,-339.84375,-53.03955078125,42.66357421875
21010.967473208,-0.1600341796875,0.732666015625,0.50732421875,-339.84375,-53.03955078125,42.66357421875
21010.96758275,-0.1600341796875,0.732666015625,0.50732421875,-339.84375,-38.4521484375,42.66357421875
21011.026088,-0.201904296875,0.732666015625,0.50732421875,-339.84375,-38.4521484375,42.66357421875
21011.0263685,-0.201904296875,0.6800537109375,0.50732421875,-339.84375,-38.4521484375,42.66357421875
21011.026506833,-0.201904296875,0.6800537109375,0.07421875,-339.84375,-38.4521484375,42.66357421875
21011.055599125,-0.201904296875,0.6800537109375,0.07421875,-339.84375,-45.5322265625,42.66357421875
21011.056323875,-0.201904296875,0.6800537109375,0.07421875,-339.84375,-45.5322265625,40.71044921875
21011.085629208,-0.253662109375,0.6800537109375,0.07421875,-339.84375,-45.5322265625,40.71044921875
21011.085804,-0.253662109375,0.6800537109375,-0.349609375,-339.84375,-45.5322265625,40.71044921875
21011.086423708,-0.253662109375,0.6800537109375,-0.349609375,-253.35693359375,-45.5322265625,40.71044921875
21011.086575,-0.253662109375,0.6800537109375,-0.349609375,-253.35693359375,-29.9072265625,40.71044921875
21011.101265666,-0.2275390625,0.6800537109375,-0.349609375,-253.35693359375,-29.9072265625,40.71044921875
21011.101355625,-0.2275390625,0.7451171875,-0.349609375,-253.35693359375,-29.9072265625,40.71044921875
21011.101430791,-0.2275390625,0.7451171875,-0.41015625,-253.35693359375,-29.9072265625,40.71044921875
21011.1307795,-0.2275390625,0.7451171875,-0.41015625,-253.35693359375,-22.3388671875,40.71044921875
21011.130980541,-0.2275390625,0.7451171875,-0.41015625,-253.35693359375,-22.3388671875,16.29638671875
21011.131506,-0.2252197265625,0.7451171875,-0.41015625,-253.35693359375,-22.3388671875,16.29638671875
21011.160727916,-0.2252197265625,0.728271484375,-0.41015625,-253.35693359375,-22.3388671875,16.29638671875
21011.167614208,-0.2252197265625,0.728271484375,-0.41015625,-253.35693359375,-25.32958984375,16.29638671875
21011.167700291,-0.2252197265625,0.728271484375,-0.41015625,-253.35693359375,-25.32958984375,9.58251953125
21011.175790375,-0.2606201171875,0.728271484375,-0.41015625,-253.35693359375,-25.32958984375,9.58251953125
21011.176025916,-0.2606201171875,0.6669921875,-0.41015625,-253.35693359375,-25.32958984375,9.58251953125
21011.176154416,-0.2606201171875,0.6669921875,-0.716796875,-253.35693359375,-25.32958984375,9.58251953125
21011.190848666,-0.2606201171875,0.6669921875,-0.716796875,-253.35693359375,-25.32958984375,6.9580078125
21011.205908375,-0.258544921875,0.6669921875,-0.716796875,-253.35693359375,-25.32958984375,6.9580078125
21011.206161791,-0.258544921875,0.6251220703125,-0.716796875,-253.35693359375,-25.32958984375,6.9580078125
21011.206283916,-0.258544921875,0.6251220703125,-0.737548828125,-253.35693359375,-25.32958984375,6.9580078125
21011.2355245,-0.258544921875,0.6251220703125,-0.737548828125,-253.35693359375,-23.0712890625,6.9580078125
21011.235734166,-0.258544921875,0.6251220703125,-0.737548828125,-253.35693359375,-23.0712890625,3.7841796875
21011.250920916,-0.2847900390625,0.6251220703125,-0.737548828125,-253.35693359375,-23.0712890625,3.7841796875
21011.251149208,-0.2847900390625,0.5589599609375,-0.737548828125,-253.35693359375,-23.0712890625,3.7841796875
21011.251264375,-0.2847900390625,0.5589599609375,-0.7757568359375,-253.35693359375,-23.0712890625,3.7841796875
21011.342280375,-0.2847900390625,0.5589599609375,-0.7757568359375,-253.35693359375,-23.0712890625,2.99072265625
21011.343008833,-0.2611083984375,0.5589599609375,-0.7757568359375,-253.35693359375,-23.0712890625,2.99072265625
21011.343233083,-0.2611083984375,0.5628662109375,-0.7757568359375,-253.35693359375,-23.0712890625,2.99072265625
21011.343376458,-0.2611083984375,0.5628662109375,-0.7481689453125,-253.35693359375,-23.0712890625,2.99072265625
21011.38298125,-0.2611083984375,0.5628662109375,-0.7481689453125,-253.35693359375,-28.62548828125,2.99072265625
21011.383102416,-0.2611083984375,0.5628662109375,-0.7481689453125,-253.35693359375,-28.62548828125,2.01416015625
21011.385956833,-0.1793212890625,0.5628662109375,-0.7481689453125,-253.35693359375,-28.62548828125,2.01416015625
21011.386305125,-0.1793212890625,0.4415283203125,-0.7481689453125,-253.35693359375,-28.62548828125,2.01416015625
21011.387014958,-0.1793212890625,0.4415283203125,-0.7890625,-253.35693359375,-28.62548828125,2.01416015625
21011.387311125,-0.1793212890625,0.4415283203125,-0.7890625,-253.35693359375,-43.27392578125,2.01416015625
21011.401542833,-0.152099609375,0.4415283203125,-0.7890625,-253.35693359375,-43.27392578125,2.01416015625
21011.401630791,-0.152099609375,0.4364013671875,-0.7890625,-253.35693359375,-43.27392578125,2.01416015625
21011.401704375,-0.152099609375,0.4364013671875,-0.8240966796875,-253.35693359375,-43.27392578125,2.01416015625
21011.417857291,-0.152099609375,0.4364013671875,-0.8240966796875,-253.35693359375,-48.40087890625,2.01416015625
21011.417947958,-0.152099609375,0.4364013671875,-0.8240966796875,-253.35693359375,-48.40087890625,-0.9765625
21011.433916208,-0.1640625,0.4364013671875,-0.8240966796875,-253.35693359375,-48.40087890625,-0.9765625
21011.434002541,-0.1640625,0.432861328125,-0.8240966796875,-253.35693359375,-48.40087890625,-0.9765625
21011.450376666,-0.1640625,0.432861328125,-0.79736328125,-253.35693359375,-48.40087890625,-0.9765625
21011.460911625,-0.1640625,0.432861328125,-0.79736328125,-253.35693359375,-50.6591796875,-0.9765625
21011.4669285,-0.1640625,0.432861328125,-0.79736328125,-253.35693359375,-50.6591796875,-1.52587890625
21011.46708925,-0.1229248046875,0.432861328125,-0.79736328125,-253.35693359375,-50.6591796875,-1.52587890625
21011.467165541,-0.1229248046875,0.4375,-0.79736328125,-253.35693359375,-50.6591796875,-1.52587890625
21011.475675,-0.1229248046875,0.4375,-0.79736328125,-253.35693359375,-55.908203125,-1.52587890625
21011.475870875,-0.1229248046875,0.4375,-0.79736328125,-253.35693359375,-55.908203125,-1.15966796875
21011.50464875,-0.104736328125,0.4375,-0.79736328125,-253.35693359375,-55.908203125,-1.15966796875
21011.508796333,-0.104736328125,0.49462890625,-0.79736328125,-253.35693359375,-55.908203125,-1.15966796875
21011.50889625,-0.104736328125,0.49462890625,-0.8497314453125,-253.35693359375,-55.908203125,-1.15966796875
21011.50899325,-0.104736328125,0.49462890625,-0.8497314453125,-4.638671875,-55.908203125,-1.15966796875
21011.534007375,-0.0606689453125,0.49462890625,-0.8497314453125,-4.638671875,-55.908203125,-1.15966796875
21011.534090833,-0.0606689453125,0.428955078125,-0.8497314453125,-4.638671875,-55.908203125,-1.15966796875
21011.534164,-0.0606689453125,0.428955078125,-0.8594970703125,-4.638671875,-55.908203125,-1.15966796875
21011.535560458,-0.0606689453125,0.428955078125,-0.8594970703125,-4.638671875,-61.1572265625,-1.15966796875
21011.535704666,-0.0606689453125,0.428955078125,-0.8594970703125,-4.638671875,-61.1572265625,-0.91552734375
21011.551020958,-0.0048828125,0.428955078125,-0.8594970703125,-4.638671875,-61.1572265625,-0.91552734375
21011.551098666,-0.0048828125,0.493896484375,-0.8594970703125,-4.638671875,-61.1572265625,-0.91552734375
21011.5675315,-0.0048828125,0.493896484375,-0.814208984375,-4.638671875,-61.1572265625,-0.91552734375
21011.626432083,-0.0048828125,0.493896484375,-0.814208984375,-4.638671875,-62.3779296875,-0.91552734375
21011.655085208,-0.0048828125,0.493896484375,-0.814208984375,-4.638671875,-62.3779296875,-4.150390625
21011.655244416,0.0015869140625,0.493896484375,-0.814208984375,-4.638671875,-62.3779296875,-4.150390625
21011.656328083,0.0015869140625,0.5389404296875,-0.814208984375,-4.638671875,-62.3779296875,-4.150390625
21011.656485708,0.0015869140625,0.5389404296875,-0.814208984375,-4.638671875,-68.78662109375,-4.150390625
21011.671030791,0.1439208984375,0.5389404296875,-0.814208984375,-4.638671875,-68.78662109375,-4.150390625
21011.6712515,0.1439208984375,0.574951171875,-0.814208984375,-4.638671875,-68.78662109375,-4.150390625
21011.671328833,0.1439208984375,0.574951171875,-0.7911376953125,-4.638671875,-68.78662109375,-4.150390625
21011.685639416,0.1439208984375,0.574951171875,-0.7911376953125,-4.638671875,-71.47216796875,-4.150390625
21011.700476125,0.1439208984375,0.574951171875,-0.7911376953125,-4.638671875,-71.47216796875,-18.98193359375
21011.717088166,0.2091064453125,0.574951171875,-0.7911376953125,-4.638671875,-71.47216796875,-18.98193359375
21011.717173541,0.2091064453125,0.426513671875,-0.7911376953125,-4.638671875,-71.47216796875,-18.98193359375
21011.717246625,0.2091064453125,0.426513671875,-0.948974609375,-4.638671875,-71.47216796875,-18.98193359375
21011.745517875,0.2091064453125,0.426513671875,-0.948974609375,-4.638671875,-74.27978515625,-18.98193359375
21011.745679833,0.2091064453125,0.426513671875,-0.948974609375,-4.638671875,-74.27978515625,-18.4326171875
21011.746531625,0.2391357421875,0.426513671875,-0.948974609375,-4.638671875,-74.27978515625,-18.4326171875
21011.746722041,0.2391357421875,0.56005859375,-0.948974609375,-4.638671875,-74.27978515625,-18.4326171875
21011.76703775,0.2391357421875,0.56005859375,-0.7982177734375,-4.638671875,-74.27978515625,-18.4326171875
21011.767122916,0.2391357421875,0.56005859375,-0.7982177734375,5.06591796875,-74.27978515625,-18.4326171875
21011.767188333,0.2391357421875,0.56005859375,-0.7982177734375,5.06591796875,-67.7490234375,-18.4326171875
21011.790157166,0.248046875,0.56005859375,-0.7982177734375,5.06591796875,-67.7490234375,-18.4326171875
21011.8060935,0.248046875,0.58544921875,-0.7982177734375,5.06591796875,-67.7490234375,-18.4326171875
21011.806326166,0.248046875,0.58544921875,-0.8211669921875,5.06591796875,-67.7490234375,-18.4326171875
21011.806446791,0.248046875,0.58544921875,-0.8211669921875,38.6962890625,-67.7490234375,-18.4326171875
21011.806739625,0.2752685546875,0.58544921875,-0.8211669921875,38.6962890625,-67.7490234375,-18.4326171875
21011.820784041,0.2752685546875,0.58544921875,-0.930908203125,38.6962890625,-67.7490234375,-18.4326171875
21011.820975208,0.2752685546875,0.58544921875,-0.930908203125,44.98291015625,-67.7490234375,-18.4326171875
21011.822141166,0.2752685546875,0.58544921875,-0.930908203125,44.98291015625,-70.1904296875,-18.4326171875
21011.835729625,0.3629150390625,0.58544921875,-0.930908203125,44.98291015625,-70.1904296875,-18.4326171875
21011.835938166,0.3629150390625,0.617431640625,-0.930908203125,44.98291015625,-70.1904296875,-18.4326171875
21011.836012291,0.3629150390625,0.617431640625,-0.78857421875,44.98291015625,-70.1904296875,-18.4326171875
21011.881374458,0.3629150390625,0.617431640625,-0.78857421875,44.98291015625,-59.99755859375,-18.4326171875
21011.88147925,0.3629150390625,0.617431640625,-0.78857421875,44.98291015625,-59.99755859375,-29.96826171875
21011.926238833,0.4276123046875,0.617431640625,-0.78857421875,44.98291015625,-59.99755859375,-29.96826171875
21011.941120291,0.4276123046875,0.668701171875,-0.78857421875,44.98291015625,-59.99755859375,-29.96826171875
21011.94138225,0.4276123046875,0.668701171875,-0.78857421875,44.98291015625,-55.5419921875,-29.96826171875
21011.94147275,0.4276123046875,0.668701171875,-0.78857421875,44.98291015625,-55.5419921875,-19.287109375
21011.941739916,0.4276123046875,0.5648193359375,-0.78857421875,44.98291015625,-55.5419921875,-19.287109375
21011.967272583,0.4276123046875,0.5648193359375,-0.78857421875,32.28759765625,-55.5419921875,-19.287109375
21011.967356666,0.4276123046875,0.5648193359375,-0.78857421875,32.28759765625,-48.583984375,-19.287109375
21011.967431166,0.4276123046875,0.5648193359375,-0.78857421875,32.28759765625,-48.583984375,-16.7236328125
21012.000636583,0.507080078125,0.5648193359375,-0.78857421875,32.28759765625,-48.583984375,-16.7236328125
21012.000852166,0.507080078125,0.6240234375,-0.78857421875,32.28759765625,-48.583984375,-16.7236328125
21012.00143075,0.507080078125,0.6240234375,-0.668701171875,32.28759765625,-48.583984375,-16.7236328125
21012.029963875,0.507080078125,0.6240234375,-0.668701171875,32.28759765625,-40.83251953125,-16.7236328125
21012.035283166,0.507080078125,0.6240234375,-0.668701171875,32.28759765625,-40.83251953125,-8.9111328125
21012.046307791,0.5550537109375,0.6240234375,-0.668701171875,32.28759765625,-40.83251953125,-8.9111328125
21012.052179083,0.5550537109375,0.6336669921875,-0.668701171875,32.28759765625,-40.83251953125,-8.9111328125
21012.052289166,0.5550537109375,0.6336669921875,-0.60107421875,32.28759765625,-40.83251953125,-8.9111328125
21012.0606365,0.5550537109375,0.6336669921875,-0.60107421875,32.28759765625,-40.83251953125,-12.0849609375
21012.150355375,0.5648193359375,0.6336669921875,-0.60107421875,32.28759765625,-40.83251953125,-12.0849609375
21012.166693333,0.5648193359375,0.6165771484375,-0.60107421875,32.28759765625,-40.83251953125,-12.0849609375
21012.167026125,0.5648193359375,0.6165771484375,-0.505126953125,32.28759765625,-40.83251953125,-12.0849609375
21012.167200166,0.5648193359375,0.6165771484375,-0.505126953125,32.28759765625,-40.71044921875,-12.0849609375
21012.225216791,0.599609375,0.6165771484375,-0.505126953125,32.28759765625,-40.71044921875,-12.0849609375
21012.226122583,0.599609375,0.6165771484375,-0.513671875,32.28759765625,-40.71044921875,-12.0849609375
21012.241444416,0.599609375,0.6165771484375,-0.513671875,59.50927734375,-40.71044921875,-12.0849609375
21012.241722583,0.599609375,0.6165771484375,-0.513671875,59.50927734375,-47.54638671875,-12.0849609375
21012.2559105,0.6883544921875,0.6165771484375,-0.513671875,59.50927734375,-47.54638671875,-12.0849609375
21012.270802833,0.6883544921875,0.5672607421875,-0.513671875,59.50927734375,-47.54638671875,-12.0849609375
21012.27105225,0.6883544921875,0.5672607421875,-0.513671875,47.91259765625,-47.54638671875,-12.0849609375
21012.2712105,0.6883544921875,0.5672607421875,-0.513671875,47.91259765625,-47.54638671875,-26.85546875
21012.316222125,0.797119140625,0.5672607421875,-0.513671875,47.91259765625,-47.54638671875,-26.85546875
21012.32256075,0.797119140625,0.5718994140625,-0.513671875,47.91259765625,-47.54638671875,-26.85546875
21012.322833333,0.797119140625,0.5718994140625,-0.2740478515625,47.91259765625,-47.54638671875,-26.85546875
21012.322951375,0.797119140625,0.5718994140625,-0.2740478515625,23.49853515625,-47.54638671875,-26.85546875
21012.331175291,0.8333740234375,0.5718994140625,-0.2740478515625,23.49853515625,-47.54638671875,-26.85546875
21012.331470541,0.8333740234375,0.5679931640625,-0.2740478515625,23.49853515625,-47.54638671875,-26.85546875
21012.331634708,0.8333740234375,0.5679931640625,-0.25732421875,23.49853515625,-47.54638671875,-26.85546875
21012.350780625,0.8333740234375,0.5679931640625,-0.25732421875,23.49853515625,-75.1953125,-26.85546875
21012.350857416,0.8333740234375,0.5679931640625,-0.25732421875,23.49853515625,-75.1953125,-36.80419921875
21012.375599958,0.8580322265625,0.5679931640625,-0.25732421875,23.49853515625,-75.1953125,-36.80419921875
21012.375775166,0.8580322265625,0.5087890625,-0.25732421875,23.49853515625,-75.1953125,-36.80419921875
21012.376365625,0.8580322265625,0.5087890625,-0.2496337890625,23.49853515625,-75.1953125,-36.80419921875
21012.405495625,0.8580322265625,0.5087890625,-0.2496337890625,23.49853515625,-75.74462890625,-36.80419921875
21012.409700291,0.8580322265625,0.5087890625,-0.2496337890625,23.49853515625,-75.74462890625,-35.58349609375
21012.434765875,0.888671875,0.5087890625,-0.2496337890625,23.49853515625,-75.74462890625,-35.58349609375
21012.450941333,0.888671875,0.48486328125,-0.2496337890625,23.49853515625,-75.74462890625,-35.58349609375
21012.526942541,0.888671875,0.48486328125,-0.255615234375,23.49853515625,-75.74462890625,-35.58349609375
21012.527422166,0.8834228515625,0.48486328125,-0.255615234375,23.49853515625,-75.74462890625,-35.58349609375
21012.556018958,0.8834228515625,0.4844970703125,-0.255615234375,23.49853515625,-75.74462890625,-35.58349609375
21012.571601916,0.8834228515625,0.4844970703125,-0.255615234375,-31.67724609375,-75.74462890625,-35.58349609375
21012.571932958,0.8834228515625,0.4844970703125,-0.255615234375,-31.67724609375,-75.74462890625,-27.40478515625
21012.586237333,0.8798828125,0.4844970703125,-0.255615234375,-31.67724609375,-75.74462890625,-27.40478515625
21012.586541625,0.8798828125,0.4844970703125,-0.178955078125,-31.67724609375,-75.74462890625,-27.40478515625
21012.586635,0.8798828125,0.4844970703125,-0.178955078125,-31.67724609375,-45.41015625,-27.40478515625
21012.586767666,0.8798828125,0.4844970703125,-0.178955078125,-31.67724609375,-45.41015625,-26.2451171875
21012.615419666,0.884521484375,0.4844970703125,-0.178955078125,-31.67724609375,-45.41015625,-26.2451171875
21012.617092416,0.884521484375,0.4793701171875,-0.178955078125,-31.67724609375,-45.41015625,-26.2451171875
21012.617351291,0.884521484375,0.4793701171875,-0.089111328125,-31.67724609375,-45.41015625,-26.2451171875
21012.617447958,0.884521484375,0.4793701171875,-0.089111328125,-16.54052734375,-45.41015625,-26.2451171875
21012.6307715,0.8748779296875,0.4793701171875,-0.089111328125,-16.54052734375,-45.41015625,-26.2451171875
21012.645880875,0.8748779296875,0.497802734375,-0.089111328125,-16.54052734375,-45.41015625,-26.2451171875
21012.646081083,0.8748779296875,0.497802734375,-0.110595703125,-16.54052734375,-45.41015625,-26.2451171875
21012.66082925,0.8748779296875,0.497802734375,-0.110595703125,-16.54052734375,-23.74267578125,-26.2451171875
21012.66105125,0.8748779296875,0.497802734375,-0.110595703125,-16.54052734375,-23.74267578125,-17.63916015625
21012.684414125,0.8699951171875,0.497802734375,-0.110595703125,-16.54052734375,-23.74267578125,-17.63916015625
21012.684495666,0.8699951171875,0.47802734375,-0.110595703125,-16.54052734375,-23.74267578125,-17.63916015625
21012.684568208,0.8699951171875,0.47802734375,-0.110595703125,-16.54052734375,-15.7470703125,-17.63916015625
21012.684638416,0.8699951171875,0.47802734375,-0.110595703125,-16.54052734375,-15.7470703125,-13.97705078125
21012.705596041,0.8787841796875,0.47802734375,-0.110595703125,-16.54052734375,-15.7470703125,-13.97705078125
21012.705784958,0.8787841796875,0.4476318359375,-0.110595703125,-16.54052734375,-15.7470703125,-13.97705078125
21012.706452416,0.8787841796875,0.4476318359375,-0.084228515625,-16.54052734375,-15.7470703125,-13.97705078125
21012.721038333,0.8787841796875,0.4476318359375,-0.084228515625,1.77001953125,-15.7470703125,-13.97705078125
21012.7359995,0.884033203125,0.4476318359375,-0.084228515625,1.77001953125,-15.7470703125,-13.97705078125
21012.736284083,0.884033203125,0.4525146484375,-0.084228515625,1.77001953125,-15.7470703125,-13.97705078125
21012.736405708,0.884033203125,0.4525146484375,-0.0946044921875,1.77001953125,-15.7470703125,-13.97705078125
21012.736843541,0.884033203125,0.4525146484375,-0.0946044921875,1.77001953125,-5.92041015625,-13.97705078125
21012.826355458,0.8961181640625,0.4525146484375,-0.0946044921875,1.77001953125,-5.92041015625,-13.97705078125
21012.826808041,0.8961181640625,0.4383544921875,-0.0946044921875,1.77001953125,-5.92041015625,-13.97705078125
21012.827190958,0.8961181640625,0.4383544921875,-0.058837890625,1.77001953125,-5.92041015625,-13.97705078125
21012.827532625,0.8961181640625,0.4383544921875,-0.058837890625,4.57763671875,-5.92041015625,-13.97705078125
21012.854775208,0.8885498046875,0.4383544921875,-0.058837890625,4.57763671875,-5.92041015625,-13.97705078125
21012.885710458,0.8885498046875,0.42578125,-0.058837890625,4.57763671875,-5.92041015625,-13.97705078125
21012.885913166,0.8885498046875,0.42578125,-0.0546875,4.57763671875,-5.92041015625,-13.97705078125
21012.88659525,0.8885498046875,0.42578125,-0.0546875,4.57763671875,0.42724609375,-13.97705078125
21012.886775583,0.9049072265625,0.42578125,-0.0546875,4.57763671875,0.42724609375,-13.97705078125
21012.945060208,0.9049072265625,0.42578125,-0.0137939453125,4.57763671875,0.42724609375,-13.97705078125
21012.962100708,0.9049072265625,0.42578125,-0.0137939453125,12.0849609375,0.42724609375,-13.97705078125
21012.962225208,0.9049072265625,0.42578125,-0.0137939453125,12.0849609375,5.4931640625,-13.97705078125
21012.962335916,0.9122314453125,0.42578125,-0.0137939453125,12.0849609375,5.4931640625,-13.97705078125
21012.985043416,0.9122314453125,0.42578125,-0.008544921875,12.0849609375,5.4931640625,-13.97705078125
21012.991136041,0.9122314453125,0.42578125,-0.008544921875,10.986328125,5.4931640625,-13.97705078125
21012.991413208,0.9122314453125,0.42578125,-0.008544921875,10.986328125,5.2490234375,-13.97705078125
21012.991545208,0.9017333984375,0.42578125,-0.008544921875,10.986328125,5.2490234375,-13.97705078125
21013.0197085,0.9017333984375,0.42578125,-0.0023193359375,10.986328125,5.2490234375,-13.97705078125
21013.021344208,0.9017333984375,0.42578125,-0.0023193359375,4.33349609375,5.2490234375,-13.97705078125
21013.021545083,0.9017333984375,0.42578125,-0.0023193359375,4.33349609375,5.0048828125,-13.97705078125
21013.036386375,0.908447265625,0.42578125,-0.0023193359375,4.33349609375,5.0048828125,-13.97705078125
21013.036596833,0.908447265625,0.3768310546875,-0.0023193359375,4.33349609375,5.0048828125,-13.97705078125
21013.036706208,0.908447265625,0.3768310546875,-0.007568359375,4.33349609375,5.0048828125,-13.97705078125
21013.050845458,0.908447265625,0.3768310546875,-0.007568359375,4.33349609375,6.40869140625,-13.97705078125
21013.050913791,0.908447265625,0.3768310546875,-0.007568359375,4.33349609375,6.40869140625,6.04248046875
NEW_REP,,,,,,
21013.155452208,0.909423828125,0.3768310546875,-0.007568359375,4.33349609375,6.40869140625,6.04248046875
21013.156698583,0.909423828125,0.360595703125,-0.007568359375,4.33349609375,6.40869140625,6.04248046875
21013.15705375,0.909423828125,0.360595703125,-0.0032958984375,4.33349609375,6.40869140625,6.04248046875
21013.15722975,0.909423828125,0.360595703125,-0.0032958984375,4.33349609375,3.662109375,6.04248046875
21013.184867833,0.9031982421875,0.360595703125,-0.0032958984375,4.33349609375,3.662109375,6.04248046875
21013.18585425,0.9031982421875,0.39013671875,-0.0032958984375,4.33349609375,3.662109375,6.04248046875
21013.186105833,0.9031982421875,0.39013671875,-0.0140380859375,4.33349609375,3.662109375,6.04248046875
21013.186293833,0.9031982421875,0.39013671875,-0.0140380859375,4.33349609375,1.708984375,6.04248046875
21013.186748416,0.9031982421875,0.39013671875,-0.0140380859375,4.33349609375,1.708984375,3.72314453125
21013.201560333,0.89990234375,0.39013671875,-0.0140380859375,4.33349609375,1.708984375,3.72314453125
21013.201638416,0.89990234375,0.3717041015625,-0.0140380859375,4.33349609375,1.708984375,3.72314453125
21013.201709041,0.89990234375,0.3717041015625,-0.0283203125,4.33349609375,1.708984375,3.72314453125
21013.230847291,0.89990234375,0.3717041015625,-0.0283203125,4.33349609375,-1.40380859375,3.72314453125
21013.231065791,0.89990234375,0.3717041015625,-0.0283203125,4.33349609375,-1.40380859375,1.77001953125
21013.231849583,0.8975830078125,0.3717041015625,-0.0283203125,4.33349609375,-1.40380859375,1.77001953125
21013.232070833,0.8975830078125,0.384521484375,-0.0283203125,4.33349609375,-1.40380859375,1.77001953125
21013.252887708,0.8975830078125,0.384521484375,-0.0283203125,4.33349609375,-0.244140625,1.77001953125
21013.252988,0.8975830078125,0.384521484375,-0.0283203125,4.33349609375,-0.244140625,2.01416015625
21013.291070041,0.9010009765625,0.384521484375,-0.0283203125,4.33349609375,-0.244140625,2.01416015625
21013.291170083,0.9010009765625,0.3839111328125,-0.0283203125,4.33349609375,-0.244140625,2.01416015625
21013.29161325,0.9010009765625,0.3839111328125,-0.0550537109375,4.33349609375,-0.244140625,2.01416015625
21013.291809708,0.9010009765625,0.3839111328125,-0.0550537109375,4.33349609375,2.62451171875,2.01416015625
21013.320743791,0.899658203125,0.3839111328125,-0.0550537109375,4.33349609375,2.62451171875,2.01416015625
21013.3208755,0.899658203125,0.4027099609375,-0.0550537109375,4.33349609375,2.62451171875,2.01416015625
21013.321596375,0.899658203125,0.4027099609375,-0.1297607421875,4.33349609375,2.62451171875,2.01416015625
21013.321805833,0.899658203125,0.4027099609375,-0.1297607421875,10.8642578125,2.62451171875,2.01416015625
21013.351139916,0.8917236328125,0.4027099609375,-0.1297607421875,10.8642578125,2.62451171875,2.01416015625
21013.351226416,0.8917236328125,0.4298095703125,-0.1297607421875,10.8642578125,2.62451171875,2.01416015625
21013.351302708,0.8917236328125,0.4298095703125,-0.2017822265625,10.8642578125,2.62451171875,2.01416015625
21013.351374666,0.8917236328125,0.4298095703125,-0.2017822265625,10.8642578125,20.08056640625,2.01416015625
21013.368034541,0.8917236328125,0.4298095703125,-0.2017822265625,10.8642578125,20.08056640625,11.3525390625
21013.36811675,0.866943359375,0.4298095703125,-0.2017822265625,10.8642578125,20.08056640625,11.3525390625
21013.42627925,0.866943359375,0.48876953125,-0.2017822265625,10.8642578125,20.08056640625,11.3525390625
21013.426659041,0.866943359375,0.48876953125,-0.2017822265625,10.8642578125,28.99169921875,11.3525390625
21013.426847958,0.866943359375,0.48876953125,-0.2017822265625,10.8642578125,28.99169921875,14.404296875
21013.427077916,0.847412109375,0.48876953125,-0.2017822265625,10.8642578125,28.99169921875,14.404296875
21013.450990208,0.847412109375,0.48876953125,-0.287353515625,10.8642578125,28.99169921875,14.404296875
21013.455919416,0.847412109375,0.48876953125,-0.287353515625,-3.41796875,28.99169921875,14.404296875
21013.456149833,0.847412109375,0.48876953125,-0.287353515625,-3.41796875,40.4052734375,14.404296875
21013.456262291,0.8656005859375,0.48876953125,-0.287353515625,-3.41796875,40.4052734375,14.404296875
21013.456858375,0.8656005859375,0.6085205078125,-0.287353515625,-3.41796875,40.4052734375,14.404296875
21013.484745333,0.8656005859375,0.6085205078125,-0.287353515625,-3.41796875,70.4345703125,14.404296875
21013.500879666,0.8656005859375,0.6085205078125,-0.287353515625,-3.41796875,70.4345703125,43.8232421875
21013.500946625,0.87744140625,0.6085205078125,-0.287353515625,-3.41796875,70.4345703125,43.8232421875
21013.5021305,0.87744140625,0.6856689453125,-0.287353515625,-3.41796875,70.4345703125,43.8232421875
21013.517911375,0.87744140625,0.6856689453125,-0.287353515625,-3.41796875,95.39794921875,43.8232421875
21013.517987,0.898681640625,0.6856689453125,-0.287353515625,-3.41796875,95.39794921875,43.8232421875
21013.518049958,0.898681640625,0.706787109375,-0.287353515625,-3.41796875,95.39794921875,43.8232421875
21013.518110208,0.898681640625,0.706787109375,-0.6361083984375,-3.41796875,95.39794921875,43.8232421875
21013.534192125,0.898681640625,0.706787109375,-0.6361083984375,-3.41796875,114.68505859375,43.8232421875
21013.575733458,0.898681640625,0.706787109375,-0.6361083984375,-3.41796875,114.68505859375,65.91796875
21013.575913041,0.9732666015625,0.706787109375,-0.6361083984375,-3.41796875,114.68505859375,65.91796875
21013.57662575,0.9732666015625,0.806884765625,-0.6361083984375,-3.41796875,114.68505859375,65.91796875
21013.576849791,0.9732666015625,0.806884765625,-0.65380859375,-3.41796875,114.68505859375,65.91796875
21013.600848458,0.958984375,0.806884765625,-0.65380859375,-3.41796875,114.68505859375,65.91796875
21013.60093,0.958984375,0.7877197265625,-0.65380859375,-3.41796875,114.68505859375,65.91796875
21013.601002458,0.958984375,0.7877197265625,-0.7509765625,-3.41796875,114.68505859375,65.91796875
21013.605677666,0.958984375,0.7877197265625,-0.7509765625,-3.41796875,172.05810546875,65.91796875
21013.605859625,0.958984375,0.7877197265625,-0.7509765625,-3.41796875,172.05810546875,92.71240234375
21013.621403958,0.8419189453125,0.7877197265625,-0.7509765625,-3.41796875,172.05810546875,92.71240234375
21013.621612291,0.8419189453125,0.826904296875,-0.7509765625,-3.41796875,172.05810546875,92.71240234375
21013.621728166,0.8419189453125,0.826904296875,-0.9349365234375,-3.41796875,172.05810546875,92.71240234375
21013.635743125,0.8419189453125,0.826904296875,-0.9349365234375,-3.41796875,202.20947265625,92.71240234375
21013.635891,0.8419189453125,0.826904296875,-0.9349365234375,-3.41796875,202.20947265625,104.79736328125
21013.66469675,0.725341796875,0.826904296875,-0.9349365234375,-3.41796875,202.20947265625,104.79736328125
21013.666569916,0.725341796875,0.819580078125,-0.9349365234375,-3.41796875,202.20947265625,104.79736328125
21013.666766125,0.725341796875,0.819580078125,-0.8709716796875,-3.41796875,202.20947265625,104.79736328125
21013.666873458,0.725341796875,0.819580078125,-0.8709716796875,8.544921875,202.20947265625,104.79736328125
21013.725995875,0.665771484375,0.819580078125,-0.8709716796875,8.544921875,202.20947265625,104.79736328125
21013.726247875,0.665771484375,0.592041015625,-0.8709716796875,8.544921875,202.20947265625,104.79736328125
21013.726378791,0.665771484375,0.592041015625,-0.9129638671875,8.544921875,202.20947265625,104.79736328125
21013.756671375,0.665771484375,0.592041015625,-0.9129638671875,8.544921875,214.66064453125,104.79736328125
21013.756880333,0.665771484375,0.592041015625,-0.9129638671875,8.544921875,214.66064453125,104.1259765625
21013.757169333,0.4609375,0.592041015625,-0.9129638671875,8.544921875,214.66064453125,104.1259765625
21013.757275166,0.4609375,0.656982421875,-0.9129638671875,8.544921875,214.66064453125,104.1259765625
21013.784627,0.4609375,0.656982421875,-0.895263671875,8.544921875,214.66064453125,104.1259765625
21013.784731208,0.4609375,0.656982421875,-0.895263671875,7.01904296875,214.66064453125,104.1259765625
21013.785675625,0.4609375,0.656982421875,-0.895263671875,7.01904296875,225.40283203125,104.1259765625
21013.802039666,0.2459716796875,0.656982421875,-0.895263671875,7.01904296875,225.40283203125,104.1259765625
21013.80213975,0.2459716796875,0.5316162109375,-0.895263671875,7.01904296875,225.40283203125,104.1259765625
21013.818198291,0.2459716796875,0.5316162109375,-0.723876953125,7.01904296875,225.40283203125,104.1259765625
21013.818311875,0.2459716796875,0.5316162109375,-0.723876953125,7.01904296875,218.8720703125,104.1259765625
21013.834408375,0.2459716796875,0.5316162109375,-0.723876953125,7.01904296875,218.8720703125,98.876953125
21013.860868208,0.01025390625,0.5316162109375,-0.723876953125,7.01904296875,218.8720703125,98.876953125
21013.861078625,0.01025390625,0.4041748046875,-0.723876953125,7.01904296875,218.8720703125,98.876953125
21013.868220416,0.01025390625,0.4041748046875,-0.590087890625,7.01904296875,218.8720703125,98.876953125
21013.875886125,-0.0467529296875,0.4041748046875,-0.590087890625,7.01904296875,218.8720703125,98.876953125
21013.876151625,-0.0467529296875,0.4373779296875,-0.590087890625,7.01904296875,218.8720703125,98.876953125
21013.876272208,-0.0467529296875,0.4373779296875,-0.580078125,7.01904296875,218.8720703125,98.876953125
21013.890701416,-0.0467529296875,0.4373779296875,-0.580078125,7.01904296875,218.8720703125,67.9931640625
21013.906044208,-0.1796875,0.4373779296875,-0.580078125,7.01904296875,218.8720703125,67.9931640625
21013.90626025,-0.1796875,0.55224609375,-0.580078125,7.01904296875,218.8720703125,67.9931640625
21013.907256375,-0.1796875,0.55224609375,-0.6376953125,7.01904296875,218.8720703125,67.9931640625
21013.920847333,-0.1796875,0.55224609375,-0.6376953125,7.01904296875,167.6025390625,67.9931640625
21013.921056166,-0.1796875,0.55224609375,-0.6376953125,7.01904296875,167.6025390625,58.837890625
21013.950281291,-0.291748046875,0.55224609375,-0.6376953125,7.01904296875,167.6025390625,58.837890625
21013.95224925,-0.291748046875,0.6019287109375,-0.6376953125,7.01904296875,167.6025390625,58.837890625
21013.952530708,-0.291748046875,0.6019287109375,-0.7742919921875,7.01904296875,167.6025390625,58.837890625
21013.952673875,-0.291748046875,0.6019287109375,-0.7742919921875,-21.6064453125,167.6025390625,58.837890625
21013.96780625,-0.412109375,0.6019287109375,-0.7742919921875,-21.6064453125,167.6025390625,58.837890625
21013.967889916,-0.412109375,0.574462890625,-0.7742919921875,-21.6064453125,167.6025390625,58.837890625
21013.967962458,-0.412109375,0.574462890625,-0.6470947265625,-21.6064453125,167.6025390625,58.837890625
21014.026624708,-0.412109375,0.574462890625,-0.6470947265625,-21.6064453125,170.166015625,58.837890625
21014.026872541,-0.412109375,0.574462890625,-0.6470947265625,-21.6064453125,170.166015625,69.27490234375
21014.027154166,-0.517578125,0.574462890625,-0.6470947265625,-21.6064453125,170.166015625,69.27490234375
21014.056162875,-0.517578125,0.574462890625,-0.5030517578125,-21.6064453125,170.166015625,69.27490234375
21014.056398541,-0.517578125,0.574462890625,-0.5030517578125,-38.51318359375,170.166015625,69.27490234375
21014.056510375,-0.517578125,0.574462890625,-0.5030517578125,-38.51318359375,173.828125,69.27490234375
21014.070914833,-0.612060546875,0.574462890625,-0.5030517578125,-38.51318359375,173.828125,69.27490234375
21014.071107041,-0.612060546875,0.265869140625,-0.5030517578125,-38.51318359375,173.828125,69.27490234375
21014.0721365,-0.612060546875,0.265869140625,0.152099609375,-38.51318359375,173.828125,69.27490234375
21014.085746458,-0.612060546875,0.265869140625,0.152099609375,-38.51318359375,173.828125,81.0546875
21014.115633166,-0.6181640625,0.265869140625,0.152099609375,-38.51318359375,173.828125,81.0546875
21014.115823708,-0.6181640625,0.1529541015625,0.152099609375,-38.51318359375,173.828125,81.0546875
21014.116637458,-0.6181640625,0.1529541015625,0.490234375,-38.51318359375,173.828125,81.0546875
21014.116828875,-0.6181640625,0.1529541015625,0.490234375,-71.4111328125,173.828125,81.0546875
21014.144883333,-0.6572265625,0.1529541015625,0.490234375,-71.4111328125,173.828125,81.0546875
21014.161091291,-0.6572265625,0.146484375,0.490234375,-71.4111328125,173.828125,81.0546875
21014.167336833,-0.6572265625,0.146484375,0.487060546875,-71.4111328125,173.828125,81.0546875
21014.167451416,-0.6572265625,0.146484375,0.487060546875,-46.56982421875,173.828125,81.0546875
21014.167522166,-0.6658935546875,0.146484375,0.487060546875,-46.56982421875,173.828125,81.0546875
21014.175717291,-0.6658935546875,0.146484375,0.3992919921875,-46.56982421875,173.828125,81.0546875
21014.175899958,-0.6658935546875,0.146484375,0.3992919921875,-18.4326171875,173.828125,81.0546875
21014.176033083,-0.6658935546875,0.146484375,0.3992919921875,-18.4326171875,-5.79833984375,81.0546875
21014.190829375,-0.7069091796875,0.146484375,0.3992919921875,-18.4326171875,-5.79833984375,81.0546875
21014.191036625,-0.7069091796875,0.1337890625,0.3992919921875,-18.4326171875,-5.79833984375,81.0546875
21014.191147333,-0.7069091796875,0.1337890625,0.2373046875,-18.4326171875,-5.79833984375,81.0546875
21014.205801041,-0.7069091796875,0.1337890625,0.2373046875,-18.4326171875,-60.24169921875,81.0546875
21014.20595275,-0.7069091796875,0.1337890625,0.2373046875,-18.4326171875,-60.24169921875,-5.859375
21014.234751666,-0.6968994140625,0.1337890625,0.2373046875,-18.4326171875,-60.24169921875,-5.859375
21014.236575083,-0.6968994140625,0.1441650390625,0.2373046875,-18.4326171875,-60.24169921875,-5.859375
21014.236862625,-0.6968994140625,0.1441650390625,0.0269775390625,-18.4326171875,-60.24169921875,-5.859375
21014.236996916,-0.6968994140625,0.1441650390625,0.0269775390625,37.4755859375,-60.24169921875,-5.859375
21014.250900541,-0.7156982421875,0.1441650390625,0.0269775390625,37.4755859375,-60.24169921875,-5.859375
21014.250977958,-0.7156982421875,0.1683349609375,0.0269775390625,37.4755859375,-60.24169921875,-5.859375
21014.251048833,-0.7156982421875,0.1683349609375,-0.059814453125,37.4755859375,-60.24169921875,-5.859375
21014.26784475,-0.7156982421875,0.1683349609375,-0.059814453125,37.4755859375,-119.0185546875,-5.859375
21014.267926291,-0.7156982421875,0.1683349609375,-0.059814453125,37.4755859375,-119.0185546875,-44.0673828125
21014.325952416,-0.6575927734375,0.1683349609375,-0.059814453125,37.4755859375,-119.0185546875,-44.0673828125
21014.32616,-0.6575927734375,0.2623291015625,-0.059814453125,37.4755859375,-119.0185546875,-44.0673828125
21014.327062208,-0.6575927734375,0.2623291015625,-0.1671142578125,37.4755859375,-119.0185546875,-44.0673828125
21014.340925791,-0.6575927734375,0.2623291015625,-0.1671142578125,37.4755859375,-135.25390625,-44.0673828125
21014.34117675,-0.6575927734375,0.2623291015625,-0.1671142578125,37.4755859375,-135.25390625,-60.4248046875
21014.37083825,-0.5335693359375,0.2623291015625,-0.1671142578125,37.4755859375,-135.25390625,-60.4248046875
21014.371090375,-0.5335693359375,0.465576171875,-0.1671142578125,37.4755859375,-135.25390625,-60.4248046875
21014.371998625,-0.5335693359375,0.465576171875,-0.5205078125,37.4755859375,-135.25390625,-60.4248046875
21014.372265,-0.5335693359375,0.465576171875,-0.5205078125,40.52734375,-135.25390625,-60.4248046875
21014.385736208,-0.4696044921875,0.465576171875,-0.5205078125,40.52734375,-135.25390625,-60.4248046875
21014.385933708,-0.4696044921875,0.5916748046875,-0.5205078125,40.52734375,-135.25390625,-60.4248046875
21014.386766458,-0.4696044921875,0.5916748046875,-0.648193359375,40.52734375,-135.25390625,-60.4248046875
21014.400950708,-0.4696044921875,0.5916748046875,-0.648193359375,40.52734375,-150.0244140625,-60.4248046875
21014.40121225,-0.4696044921875,0.5916748046875,-0.648193359375,40.52734375,-150.0244140625,-75.927734375
21014.417637916,-0.455322265625,0.5916748046875,-0.648193359375,40.52734375,-150.0244140625,-75.927734375
21014.417717916,-0.455322265625,0.5850830078125,-0.648193359375,40.52734375,-150.0244140625,-75.927734375
21014.417788,-0.455322265625,0.5850830078125,-0.6622314453125,40.52734375,-150.0244140625,-75.927734375
21014.434459083,-0.455322265625,0.5850830078125,-0.6622314453125,40.52734375,-146.05712890625,-75.927734375
21014.434543708,-0.455322265625,0.5850830078125,-0.6622314453125,40.52734375,-146.05712890625,-72.3876953125
21014.450969666,-0.3358154296875,0.5850830078125,-0.6622314453125,40.52734375,-146.05712890625,-72.3876953125
21014.451049458,-0.3358154296875,0.6297607421875,-0.6622314453125,40.52734375,-146.05712890625,-72.3876953125
21014.451121958,-0.3358154296875,0.6297607421875,-0.90576171875,40.52734375,-146.05712890625,-72.3876953125
21014.460933458,-0.3358154296875,0.6297607421875,-0.90576171875,40.52734375,-139.0380859375,-72.3876953125
21014.461161416,-0.3358154296875,0.6297607421875,-0.90576171875,40.52734375,-139.0380859375,-65.91796875
21014.476061791,-0.3145751953125,0.6297607421875,-0.90576171875,40.52734375,-139.0380859375,-65.91796875
21014.4763465,-0.3145751953125,0.6458740234375,-0.90576171875,40.52734375,-139.0380859375,-65.91796875
21014.477154375,-0.3145751953125,0.6458740234375,-0.7559814453125,40.52734375,-139.0380859375,-65.91796875
21014.490904291,-0.3145751953125,0.6458740234375,-0.7559814453125,40.52734375,-132.32421875,-65.91796875
21014.550874833,-0.3145751953125,0.6458740234375,-0.7559814453125,40.52734375,-132.32421875,-62.80517578125
21014.568362083,-0.18798828125,0.6458740234375,-0.7559814453125,40.52734375,-132.32421875,-62.80517578125
21014.626921916,-0.18798828125,0.7509765625,-0.7559814453125,40.52734375,-132.32421875,-62.80517578125
21014.627343708,-0.18798828125,0.7509765625,-0.76806640625,40.52734375,-132.32421875,-62.80517578125
21014.627776416,-0.18798828125,0.7509765625,-0.76806640625,40.52734375,-127.3193359375,-62.80517578125
21014.628082583,-0.04736328125,0.7509765625,-0.76806640625,40.52734375,-127.3193359375,-62.80517578125
21014.656282291,-0.04736328125,0.7509765625,-0.805908203125,40.52734375,-127.3193359375,-62.80517578125
21014.656502333,-0.04736328125,0.7509765625,-0.805908203125,31.25,-127.3193359375,-62.80517578125
21014.656578833,-0.04736328125,0.7509765625,-0.805908203125,31.25,-116.3330078125,-62.80517578125
21014.685673791,0.06298828125,0.7509765625,-0.805908203125,31.25,-116.3330078125,-62.80517578125
21014.687260166,0.06298828125,0.716796875,-0.805908203125,31.25,-116.3330078125,-62.80517578125
21014.687507583,0.06298828125,0.716796875,-0.6951904296875,31.25,-116.3330078125,-62.80517578125
21014.687641083,0.06298828125,0.716796875,-0.6951904296875,31.25,-116.3330078125,-20.81298828125
21014.724922041,0.1400146484375,0.716796875,-0.6951904296875,31.25,-116.3330078125,-20.81298828125
21014.725049833,0.1400146484375,0.715576171875,-0.6951904296875,31.25,-116.3330078125,-20.81298828125
21014.725162541,0.1400146484375,0.715576171875,-0.7816162109375,31.25,-116.3330078125,-20.81298828125
21014.791370166,0.1400146484375,0.715576171875,-0.7816162109375,31.25,-96.98486328125,-20.81298828125
21014.79171125,0.1400146484375,0.715576171875,-0.7816162109375,31.25,-96.98486328125,-25.57373046875
21014.791867583,0.168701171875,0.715576171875,-0.7816162109375,31.25,-96.98486328125,-25.57373046875
21014.792071166,0.168701171875,0.82666015625,-0.7816162109375,31.25,-96.98486328125,-25.57373046875
21014.835902,0.168701171875,0.82666015625,-0.7816162109375,31.25,-95.27587890625,-25.57373046875
21014.836120083,0.168701171875,0.82666015625,-0.7816162109375,31.25,-95.27587890625,-25.93994140625
21014.836630166,0.288818359375,0.82666015625,-0.7816162109375,31.25,-95.27587890625,-25.93994140625
21014.836819083,0.288818359375,0.77294921875,-0.7816162109375,31.25,-95.27587890625,-25.93994140625
21014.865485041,0.288818359375,0.77294921875,-0.7816162109375,31.25,-85.14404296875,-25.93994140625
21014.865690541,0.288818359375,0.77294921875,-0.7816162109375,31.25,-85.14404296875,-36.376953125
21014.926597666,0.3316650390625,0.77294921875,-0.7816162109375,31.25,-85.14404296875,-36.376953125
21014.926967416,0.3316650390625,0.6639404296875,-0.7816162109375,31.25,-85.14404296875,-36.376953125
21014.927151125,0.3316650390625,0.6639404296875,-0.6065673828125,31.25,-85.14404296875,-36.376953125
21014.941273458,0.4423828125,0.6639404296875,-0.6065673828125,31.25,-85.14404296875,-36.376953125
21014.941618125,0.4423828125,0.7916259765625,-0.6065673828125,31.25,-85.14404296875,-36.376953125
21014.941794833,0.4423828125,0.7916259765625,-0.6221923828125,31.25,-85.14404296875,-36.376953125
21014.970864708,0.4423828125,0.7916259765625,-0.6221923828125,31.25,-79.89501953125,-36.376953125
21014.9711,0.4423828125,0.7916259765625,-0.6221923828125,31.25,-79.89501953125,-43.8232421875
21014.985981291,0.5279541015625,0.7916259765625,-0.6221923828125,31.25,-79.89501953125,-43.8232421875
21014.986191541,0.5279541015625,0.7449951171875,-0.6221923828125,31.25,-79.89501953125,-43.8232421875
21015.001796708,0.5279541015625,0.7449951171875,-0.5330810546875,31.25,-79.89501953125,-43.8232421875
21015.030747625,0.5977783203125,0.7449951171875,-0.5330810546875,31.25,-79.89501953125,-43.8232421875
21015.030950041,0.5977783203125,0.7828369140625,-0.5330810546875,31.25,-79.89501953125,-43.8232421875
21015.031922916,0.5977783203125,0.7828369140625,-0.51220703125,31.25,-79.89501953125,-43.8232421875
21015.03212575,0.5977783203125,0.7828369140625,-0.51220703125,31.25,-72.998046875,-43.8232421875
21015.06082075,0.6318359375,0.7828369140625,-0.51220703125,31.25,-72.998046875,-43.8232421875
21015.061064791,0.6318359375,0.662841796875,-0.51220703125,31.25,-72.998046875,-43.8232421875
21015.061776875,0.6318359375,0.662841796875,-0.4344482421875,31.25,-72.998046875,-43.8232421875
21015.062051041,0.6318359375,0.662841796875,-0.4344482421875,11.3525390625,-72.998046875,-43.8232421875
21015.090695125,0.6737060546875,0.662841796875,-0.4344482421875,11.3525390625,-72.998046875,-43.8232421875
21015.092409333,0.6737060546875,0.7445068359375,-0.4344482421875,11.3525390625,-72.998046875,-43.8232421875
21015.092600333,0.6737060546875,0.7445068359375,-0.40576171875,11.3525390625,-72.998046875,-43.8232421875
21015.092725125,0.6737060546875,0.7445068359375,-0.40576171875,3.662109375,-72.998046875,-43.8232421875
21015.120764208,0.6717529296875,0.7445068359375,-0.40576171875,3.662109375,-72.998046875,-43.8232421875
21015.120943833,0.6717529296875,0.690673828125,-0.40576171875,3.662109375,-72.998046875,-43.8232421875
21015.121973666,0.6717529296875,0.690673828125,-0.4208984375,3.662109375,-72.998046875,-43.8232421875
21015.122189791,0.6717529296875,0.690673828125,-0.4208984375,3.662109375,-60.9130859375,-43.8232421875
21015.1357475,0.6829833984375,0.690673828125,-0.4208984375,3.662109375,-60.9130859375,-43.8232421875
21015.240634458,0.6829833984375,0.6998291015625,-0.4208984375,3.662109375,-60.9130859375,-43.8232421875
21015.257261958,0.6829833984375,0.6998291015625,-0.3983154296875,3.662109375,-60.9130859375,-43.8232421875
21015.257715916,0.6829833984375,0.6998291015625,-0.3983154296875,3.662109375,-56.396484375,-43.8232421875
21015.257837125,0.6829833984375,0.6998291015625,-0.3983154296875,3.662109375,-56.396484375,-37.2314453125
21015.257942875,0.6829833984375,0.6998291015625,-0.373046875,3.662109375,-56.396484375,-37.2314453125
21015.376210958,0.6829833984375,0.6998291015625,-0.373046875,3.662109375,-49.9267578125,-37.2314453125
21015.377342416,0.6829833984375,0.6998291015625,-0.373046875,3.662109375,-49.9267578125,-29.541015625
21015.377936916,0.75439453125,0.6998291015625,-0.373046875,3.662109375,-49.9267578125,-29.541015625
21015.378172541,0.75439453125,0.6015625,-0.373046875,3.662109375,-49.9267578125,-29.541015625
21015.401105583,0.75439453125,0.6015625,-0.373046875,3.662109375,-37.353515625,-29.541015625
21015.40581375,0.75439453125,0.6015625,-0.373046875,3.662109375,-37.353515625,-29.96826171875
21015.420809291,0.820556640625,0.6015625,-0.373046875,3.662109375,-37.353515625,-29.96826171875
21015.4359805,0.820556640625,0.4886474609375,-0.373046875,3.662109375,-37.353515625,-29.96826171875
21015.436216041,0.820556640625,0.4886474609375,-0.1484375,3.662109375,-37.353515625,-29.96826171875
21015.43633425,0.820556640625,0.4886474609375,-0.1484375,3.662109375,-37.17041015625,-29.96826171875
21015.436770458,0.820556640625,0.4886474609375,-0.1484375,3.662109375,-37.17041015625,-30.45654296875
21015.450797708,0.8253173828125,0.4886474609375,-0.1484375,3.662109375,-37.17041015625,-30.45654296875
21015.526573375,0.8253173828125,0.547607421875,-0.1484375,3.662109375,-37.17041015625,-30.45654296875
21015.52701975,0.8253173828125,0.547607421875,-0.1470947265625,3.662109375,-37.17041015625,-30.45654296875
21015.52714175,0.8253173828125,0.547607421875,-0.1470947265625,3.662109375,-35.400390625,-30.45654296875
21015.527337541,0.8253173828125,0.547607421875,-0.1470947265625,3.662109375,-35.400390625,-28.3203125
21015.5517895,0.8253173828125,0.51611328125,-0.1470947265625,3.662109375,-35.400390625,-28.3203125
21015.551889208,0.8253173828125,0.51611328125,-0.0657958984375,3.662109375,-35.400390625,-28.3203125
21015.552075666,0.8253173828125,0.51611328125,-0.0657958984375,-7.2021484375,-35.400390625,-28.3203125
21015.555777416,0.8253173828125,0.51611328125,-0.0657958984375,-7.2021484375,-35.400390625,-25.08544921875
21015.570891125,0.9378662109375,0.51611328125,-0.0657958984375,-7.2021484375,-35.400390625,-25.08544921875
21015.571091416,0.9378662109375,0.541015625,-0.0657958984375,-7.2021484375,-35.400390625,-25.08544921875
21015.616161291,0.9378662109375,0.541015625,-0.1512451171875,-7.2021484375,-35.400390625,-25.08544921875
21015.617457166,0.9378662109375,0.541015625,-0.1512451171875,-7.2021484375,-55.96923828125,-25.08544921875
21015.617845791,0.9378662109375,0.541015625,-0.1512451171875,-7.2021484375,-55.96923828125,-38.330078125
21015.617972458,0.864013671875,0.541015625,-0.1512451171875,-7.2021484375,-55.96923828125,-38.330078125
21015.646301083,0.864013671875,0.541015625,0.026611328125,-7.2021484375,-55.96923828125,-38.330078125
21015.652106666,0.864013671875,0.541015625,0.026611328125,-11.3525390625,-55.96923828125,-38.330078125
21015.652254791,0.864013671875,0.541015625,0.026611328125,-11.3525390625,-29.78515625,-38.330078125
21015.675853,0.87451171875,0.541015625,0.026611328125,-11.3525390625,-29.78515625,-38.330078125
21015.676056041,0.87451171875,0.4571533203125,0.026611328125,-11.3525390625,-29.78515625,-38.330078125
21015.676618208,0.87451171875,0.4571533203125,-0.0975341796875,-11.3525390625,-29.78515625,-38.330078125
21015.676802625,0.87451171875,0.4571533203125,-0.0975341796875,-11.3525390625,-29.78515625,-1.52587890625
21015.690906666,0.8994140625,0.4571533203125,-0.0975341796875,-11.3525390625,-29.78515625,-1.52587890625
21015.706054291,0.8994140625,0.4229736328125,-0.0975341796875,-11.3525390625,-29.78515625,-1.52587890625
21015.706247083,0.8994140625,0.4229736328125,-0.0667724609375,-11.3525390625,-29.78515625,-1.52587890625
21015.734919875,0.8994140625,0.4229736328125,-0.0667724609375,-11.3525390625,-10.8642578125,-1.52587890625
21015.736700083,0.8994140625,0.4229736328125,-0.0667724609375,-11.3525390625,-10.8642578125,-4.5166015625
21015.737060083,0.887451171875,0.4229736328125,-0.0667724609375,-11.3525390625,-10.8642578125,-4.5166015625
21015.737218916,0.887451171875,0.4234619140625,-0.0667724609375,-11.3525390625,-10.8642578125,-4.5166015625
21015.855875958,0.887451171875,0.4234619140625,-0.0667724609375,-11.3525390625,-7.38525390625,-4.5166015625
21015.884145791,0.887451171875,0.4234619140625,-0.0667724609375,-11.3525390625,-7.38525390625,-2.74658203125
21015.884232166,0.8809814453125,0.4234619140625,-0.0667724609375,-11.3525390625,-7.38525390625,-2.74658203125
21015.885629208,0.8809814453125,0.432861328125,-0.0667724609375,-11.3525390625,-7.38525390625,-2.74658203125
21015.885771875,0.8809814453125,0.432861328125,-0.0667724609375,-11.3525390625,-2.50244140625,-2.74658203125
21015.91580375,0.892822265625,0.432861328125,-0.0667724609375,-11.3525390625,-2.50244140625,-2.74658203125
21015.916010166,0.892822265625,0.3895263671875,-0.0667724609375,-11.3525390625,-2.50244140625,-2.74658203125
21015.916691375,0.892822265625,0.3895263671875,-0.0545654296875,-11.3525390625,-2.50244140625,-2.74658203125
21015.916915166,0.892822265625,0.3895263671875,-0.0545654296875,-11.3525390625,-2.50244140625,4.21142578125
NEW_REP,,,,,,
21015.950834166,0.8914794921875,0.3895263671875,-0.0545654296875,-11.3525390625,-2.50244140625,4.21142578125
21015.950902875,0.8914794921875,0.3946533203125,-0.0545654296875,-11.3525390625,-2.50244140625,4.21142578125
21015.950964791,0.8914794921875,0.3946533203125,-0.0552978515625,-11.3525390625,-2.50244140625,4.21142578125
21015.951032083,0.8914794921875,0.3946533203125,-0.0552978515625,-11.3525390625,2.197265625,4.21142578125
21015.960844458,0.9066162109375,0.3946533203125,-0.0552978515625,-11.3525390625,2.197265625,4.21142578125
21015.967124791,0.9066162109375,0.4329833984375,-0.0552978515625,-11.3525390625,2.197265625,4.21142578125
21015.967217166,0.9066162109375,0.4329833984375,-0.120849609375,-11.3525390625,2.197265625,4.21142578125
21015.975724958,0.9066162109375,0.4329833984375,-0.120849609375,-11.3525390625,10.55908203125,4.21142578125
21015.991002208,0.9066162109375,0.4329833984375,-0.120849609375,-11.3525390625,10.55908203125,12.26806640625
21015.991163416,0.9068603515625,0.4329833984375,-0.120849609375,-11.3525390625,10.55908203125,12.26806640625
21015.992471791,0.9068603515625,0.4171142578125,-0.120849609375,-11.3525390625,10.55908203125,12.26806640625
21015.992590541,0.9068603515625,0.4171142578125,-0.1727294921875,-11.3525390625,10.55908203125,12.26806640625
21016.005917458,0.9068603515625,0.4171142578125,-0.1727294921875,-11.3525390625,26.3671875,12.26806640625
21016.006051666,0.9068603515625,0.4171142578125,-0.1727294921875,-11.3525390625,26.3671875,24.59716796875
21016.020914333,0.89453125,0.4171142578125,-0.1727294921875,-11.3525390625,26.3671875,24.59716796875
21016.021056833,0.89453125,0.44775390625,-0.1727294921875,-11.3525390625,26.3671875,24.59716796875
21016.022135458,0.89453125,0.44775390625,-0.2027587890625,-11.3525390625,26.3671875,24.59716796875
21016.035787875,0.89453125,0.44775390625,-0.2027587890625,-11.3525390625,37.59765625,24.59716796875
21016.035909875,0.89453125,0.44775390625,-0.2027587890625,-11.3525390625,37.59765625,30.57861328125
21016.050680625,0.831298828125,0.44775390625,-0.2027587890625,-11.3525390625,37.59765625,30.57861328125
21016.067019708,0.831298828125,0.5340576171875,-0.2027587890625,-11.3525390625,37.59765625,30.57861328125
21016.126255541,0.831298828125,0.5340576171875,-0.3294677734375,-11.3525390625,37.59765625,30.57861328125
21016.126507083,0.831298828125,0.5340576171875,-0.3294677734375,-11.3525390625,48.9501953125,30.57861328125
21016.126639125,0.831298828125,0.5340576171875,-0.3294677734375,-11.3525390625,48.9501953125,32.28759765625
21016.126986,0.820556640625,0.5340576171875,-0.3294677734375,-11.3525390625,48.9501953125,32.28759765625
21016.151033583,0.820556640625,0.5340576171875,-0.3294677734375,-11.3525390625,53.1005859375,32.28759765625
21016.246338916,0.820556640625,0.5340576171875,-0.3294677734375,-11.3525390625,53.1005859375,32.89794921875
21016.290631083,0.8629150390625,0.5340576171875,-0.3294677734375,-11.3525390625,53.1005859375,32.89794921875
21016.29195675,0.8629150390625,0.6826171875,-0.3294677734375,-11.3525390625,53.1005859375,32.89794921875
21016.292203208,0.8629150390625,0.6826171875,-0.4234619140625,-11.3525390625,53.1005859375,32.89794921875
21016.292331208,0.8629150390625,0.6826171875,-0.4234619140625,-11.3525390625,90.75927734375,32.89794921875
21016.320808416,0.8458251953125,0.6826171875,-0.4234619140625,-11.3525390625,90.75927734375,32.89794921875
21016.320986333,0.8458251953125,0.883056640625,-0.4234619140625,-11.3525390625,90.75927734375,32.89794921875
21016.335738291,0.8458251953125,0.883056640625,-0.536865234375,-11.3525390625,90.75927734375,32.89794921875
21016.335979625,0.8458251953125,0.883056640625,-0.536865234375,-11.3525390625,146.17919921875,32.89794921875
21016.336077875,0.8458251953125,0.883056640625,-0.536865234375,-11.3525390625,146.17919921875,87.890625
21016.365800416,0.6683349609375,0.883056640625,-0.536865234375,-11.3525390625,146.17919921875,87.890625
21016.365988375,0.6683349609375,0.882568359375,-0.536865234375,-11.3525390625,146.17919921875,87.890625
21016.3666645,0.6683349609375,0.882568359375,-0.629150390625,-11.3525390625,146.17919921875,87.890625
21016.366843166,0.6683349609375,0.882568359375,-0.629150390625,-20.81298828125,146.17919921875,87.890625
21016.4266135,0.614013671875,0.882568359375,-0.629150390625,-20.81298828125,146.17919921875,87.890625
21016.426922791,0.614013671875,0.869140625,-0.629150390625,-20.81298828125,146.17919921875,87.890625
21016.427033416,0.614013671875,0.869140625,-0.7012939453125,-20.81298828125,146.17919921875,87.890625
21016.441177791,0.614013671875,0.869140625,-0.7012939453125,-20.81298828125,165.771484375,87.890625
21016.441443958,0.614013671875,0.869140625,-0.7012939453125,-20.81298828125,165.771484375,101.37939453125
21016.455880375,0.3743896484375,0.869140625,-0.7012939453125,-20.81298828125,165.771484375,101.37939453125
21016.45617275,0.3743896484375,0.7647705078125,-0.7012939453125,-20.81298828125,165.771484375,101.37939453125
21016.456289,0.3743896484375,0.7647705078125,-0.6448974609375,-20.81298828125,165.771484375,101.37939453125
21016.470920333,0.3743896484375,0.7647705078125,-0.6448974609375,-20.81298828125,163.9404296875,101.37939453125
21016.471130916,0.3743896484375,0.7647705078125,-0.6448974609375,-20.81298828125,163.9404296875,102.60009765625
21016.485848791,0.22998046875,0.7647705078125,-0.6448974609375,-20.81298828125,163.9404296875,102.60009765625
21016.486036958,0.22998046875,0.75732421875,-0.6448974609375,-20.81298828125,163.9404296875,102.60009765625
21016.487185208,0.22998046875,0.75732421875,-0.6544189453125,-20.81298828125,163.9404296875,102.60009765625
21016.515288625,0.22998046875,0.75732421875,-0.6544189453125,-20.81298828125,159.7900390625,102.60009765625
21016.535112208,0.22998046875,0.75732421875,-0.6544189453125,-20.81298828125,159.7900390625,102.72216796875
21016.535216958,0.1558837890625,0.75732421875,-0.6544189453125,-20.81298828125,159.7900390625,102.72216796875
21016.535306708,0.1558837890625,0.6500244140625,-0.6544189453125,-20.81298828125,159.7900390625,102.72216796875
21016.535408666,0.1558837890625,0.6500244140625,-0.6544189453125,-20.81298828125,152.16064453125,102.72216796875
21016.560814375,0.0242919921875,0.6500244140625,-0.6544189453125,-20.81298828125,152.16064453125,102.72216796875
21016.560996458,0.0242919921875,0.5985107421875,-0.6544189453125,-20.81298828125,152.16064453125,102.72216796875
21016.56172125,0.0242919921875,0.5985107421875,-0.5931396484375,-20.81298828125,152.16064453125,102.72216796875
21016.5619605,0.0242919921875,0.5985107421875,-0.5931396484375,-13.85498046875,152.16064453125,102.72216796875
21016.5759355,-0.0579833984375,0.5985107421875,-0.5931396484375,-13.85498046875,152.16064453125,102.72216796875
21016.576113458,-0.0579833984375,0.63818359375,-0.5931396484375,-13.85498046875,152.16064453125,102.72216796875
21016.5772035,-0.0579833984375,0.63818359375,-0.5665283203125,-13.85498046875,152.16064453125,102.72216796875
21016.590859875,-0.0579833984375,0.63818359375,-0.5665283203125,-13.85498046875,134.3994140625,102.72216796875
21016.591051083,-0.0579833984375,0.63818359375,-0.5665283203125,-13.85498046875,134.3994140625,87.95166015625
21016.606289291,-0.20263671875,0.63818359375,-0.5665283203125,-13.85498046875,134.3994140625,87.95166015625
21016.606578958,-0.20263671875,0.5811767578125,-0.5665283203125,-13.85498046875,134.3994140625,87.95166015625
21016.606695208,-0.20263671875,0.5811767578125,-0.494384765625,-13.85498046875,134.3994140625,87.95166015625
21016.621137416,-0.20263671875,0.5811767578125,-0.494384765625,-13.85498046875,127.13623046875,87.95166015625
21016.621357125,-0.20263671875,0.5811767578125,-0.494384765625,-13.85498046875,127.13623046875,83.0078125
21016.6358085,-0.3211669921875,0.5811767578125,-0.494384765625,-13.85498046875,127.13623046875,83.0078125
21016.636014833,-0.3211669921875,0.5,-0.494384765625,-13.85498046875,127.13623046875,83.0078125
21016.636126708,-0.3211669921875,0.5,-0.4393310546875,-13.85498046875,127.13623046875,83.0078125
21016.665738541,-0.3211669921875,0.5,-0.4393310546875,-13.85498046875,115.29541015625,83.0078125
21016.667264875,-0.3211669921875,0.5,-0.4393310546875,-13.85498046875,115.29541015625,75.37841796875
21016.667489958,-0.36865234375,0.5,-0.4393310546875,-13.85498046875,115.29541015625,75.37841796875
21016.667611541,-0.36865234375,0.47216796875,-0.4393310546875,-13.85498046875,115.29541015625,75.37841796875
21016.726193166,-0.36865234375,0.47216796875,-0.4393310546875,-13.85498046875,105.712890625,75.37841796875
21016.741495583,-0.36865234375,0.47216796875,-0.4393310546875,-13.85498046875,105.712890625,67.2607421875
21016.741632458,-0.45751953125,0.47216796875,-0.4393310546875,-13.85498046875,105.712890625,67.2607421875
21016.742631083,-0.45751953125,0.47216796875,-0.387939453125,-13.85498046875,105.712890625,67.2607421875
21016.742882,-0.45751953125,0.47216796875,-0.387939453125,-16.357421875,105.712890625,67.2607421875
21016.755963125,-0.45751953125,0.47216796875,-0.387939453125,-16.357421875,105.712890625,54.3212890625
21016.784943916,-0.6141357421875,0.47216796875,-0.387939453125,-16.357421875,105.712890625,54.3212890625
21016.786165958,-0.6141357421875,0.50830078125,-0.387939453125,-16.357421875,105.712890625,54.3212890625
21016.78642275,-0.6141357421875,0.50830078125,-0.3922119140625,-16.357421875,105.712890625,54.3212890625
21016.787055416,-0.6141357421875,0.50830078125,-0.3922119140625,-12.3291015625,105.712890625,54.3212890625
21016.800820541,-0.680419921875,0.50830078125,-0.3922119140625,-12.3291015625,105.712890625,54.3212890625
21016.800940666,-0.680419921875,0.4134521484375,-0.3922119140625,-12.3291015625,105.712890625,54.3212890625
21016.800990708,-0.680419921875,0.4134521484375,-0.3729248046875,-12.3291015625,105.712890625,54.3212890625
21016.815836958,-0.680419921875,0.4134521484375,-0.3729248046875,-12.3291015625,55.908203125,54.3212890625
21016.834519208,-0.680419921875,0.4134521484375,-0.3729248046875,-12.3291015625,55.908203125,32.71484375
21016.851292916,-0.7196044921875,0.4134521484375,-0.3729248046875,-12.3291015625,55.908203125,32.71484375
21016.851398291,-0.7196044921875,0.4349365234375,-0.3729248046875,-12.3291015625,55.908203125,32.71484375
21016.851488166,-0.7196044921875,0.4349365234375,-0.3653564453125,-12.3291015625,55.908203125,32.71484375
21016.851574083,-0.7196044921875,0.4349365234375,-0.3653564453125,-12.3291015625,50.4150390625,32.71484375
21016.86090325,-0.7633056640625,0.4349365234375,-0.3653564453125,-12.3291015625,50.4150390625,32.71484375
21016.86109925,-0.7633056640625,0.4984130859375,-0.3653564453125,-12.3291015625,50.4150390625,32.71484375
21016.867892458,-0.7633056640625,0.4984130859375,-0.372802734375,-12.3291015625,50.4150390625,32.71484375
21016.876065208,-0.7633056640625,0.4984130859375,-0.372802734375,-12.3291015625,45.7763671875,32.71484375
21016.876280791,-0.7633056640625,0.4984130859375,-0.372802734375,-12.3291015625,45.7763671875,26.2451171875
21016.891016291,-0.8095703125,0.4984130859375,-0.372802734375,-12.3291015625,45.7763671875,26.2451171875
21016.891228458,-0.8095703125,0.479248046875,-0.372802734375,-12.3291015625,45.7763671875,26.2451171875
21016.891303833,-0.8095703125,0.479248046875,-0.3629150390625,-12.3291015625,45.7763671875,26.2451171875
21016.906139833,-0.8095703125,0.479248046875,-0.3629150390625,-12.3291015625,43.3349609375,26.2451171875
21016.906327291,-0.8095703125,0.479248046875,-0.3629150390625,-12.3291015625,43.3349609375,25.7568359375
21016.935952375,-0.8236083984375,0.479248046875,-0.3629150390625,-12.3291015625,43.3349609375,25.7568359375
21016.936145916,-0.8236083984375,0.45947265625,-0.3629150390625,-12.3291015625,43.3349609375,25.7568359375
21016.936753916,-0.8236083984375,0.45947265625,-0.3590087890625,-12.3291015625,43.3349609375,25.7568359375
21016.936929041,-0.8236083984375,0.45947265625,-0.3590087890625,-12.3291015625,42.48046875,25.7568359375
21016.950632041,-0.84326171875,0.45947265625,-0.3590087890625,-12.3291015625,42.48046875,25.7568359375
21016.965991958,-0.84326171875,0.4927978515625,-0.3590087890625,-12.3291015625,42.48046875,25.7568359375
21016.966187666,-0.84326171875,0.4927978515625,-0.3961181640625,-12.3291015625,42.48046875,25.7568359375
21016.970647666,-0.84326171875,0.4927978515625,-0.3961181640625,-12.3291015625,43.3349609375,25.7568359375
21016.97089075,-0.84326171875,0.4927978515625,-0.3961181640625,-12.3291015625,43.3349609375,28.9306640625
21017.02619475,-0.87939453125,0.4927978515625,-0.3961181640625,-12.3291015625,43.3349609375,28.9306640625
21017.026491583,-0.87939453125,0.4088134765625,-0.3961181640625,-12.3291015625,43.3349609375,28.9306640625
21017.026584958,-0.87939453125,0.4088134765625,-0.3697509765625,-12.3291015625,43.3349609375,28.9306640625
21017.041907333,-0.87939453125,0.4088134765625,-0.3697509765625,-12.3291015625,47.54638671875,28.9306640625
21017.042015375,-0.87939453125,0.4088134765625,-0.3697509765625,-12.3291015625,47.54638671875,31.67724609375
21017.070763083,-0.8897705078125,0.4088134765625,-0.3697509765625,-12.3291015625,47.54638671875,31.67724609375
21017.070940041,-0.8897705078125,0.335205078125,-0.3697509765625,-12.3291015625,47.54638671875,31.67724609375
21017.071652541,-0.8897705078125,0.335205078125,-0.29443359375,-12.3291015625,47.54638671875,31.67724609375
21017.071816458,-0.8897705078125,0.335205078125,-0.29443359375,-20.44677734375,47.54638671875,31.67724609375
21017.085751166,-0.882568359375,0.335205078125,-0.29443359375,-20.44677734375,47.54638671875,31.67724609375
21017.085911041,-0.882568359375,0.2852783203125,-0.29443359375,-20.44677734375,47.54638671875,31.67724609375
21017.086654583,-0.882568359375,0.2852783203125,-0.2664794921875,-20.44677734375,47.54638671875,31.67724609375
21017.115717166,-0.882568359375,0.2852783203125,-0.2664794921875,-20.44677734375,53.03955078125,31.67724609375
21017.117443041,-0.882568359375,0.2852783203125,-0.2664794921875,-20.44677734375,53.03955078125,33.99658203125
21017.117564083,-0.8944091796875,0.2852783203125,-0.2664794921875,-20.44677734375,53.03955078125,33.99658203125
21017.135074416,-0.8944091796875,0.2852783203125,-0.258544921875,-20.44677734375,53.03955078125,33.99658203125
21017.135148666,-0.8944091796875,0.2852783203125,-0.258544921875,-22.76611328125,53.03955078125,33.99658203125
21017.135212875,-0.8944091796875,0.2852783203125,-0.258544921875,-22.76611328125,53.3447265625,33.99658203125
21017.145933,-0.9068603515625,0.2852783203125,-0.258544921875,-22.76611328125,53.3447265625,33.99658203125
21017.151268166,-0.9068603515625,0.2423095703125,-0.258544921875,-22.76611328125,53.3447265625,33.99658203125
21017.151382,-0.9068603515625,0.2423095703125,-0.236083984375,-22.76611328125,53.3447265625,33.99658203125
21017.161025125,-0.9068603515625,0.2423095703125,-0.236083984375,-22.76611328125,52.001953125,33.99658203125
21017.161200125,-0.9068603515625,0.2423095703125,-0.236083984375,-22.76611328125,52.001953125,29.4189453125
21017.176126416,-0.914306640625,0.2423095703125,-0.236083984375,-22.76611328125,52.001953125,29.4189453125
21017.176274541,-0.914306640625,0.21044921875,-0.236083984375,-22.76611328125,52.001953125,29.4189453125
21017.177265666,-0.914306640625,0.21044921875,-0.2017822265625,-22.76611328125,52.001953125,29.4189453125
21017.19085475,-0.914306640625,0.21044921875,-0.2017822265625,-22.76611328125,50.6591796875,29.4189453125
21017.191015125,-0.914306640625,0.21044921875,-0.2017822265625,-22.76611328125,50.6591796875,26.79443359375
21017.206267583,-0.9122314453125,0.21044921875,-0.2017822265625,-22.76611328125,50.6591796875,26.79443359375
21017.206472291,-0.9122314453125,0.1737060546875,-0.2017822265625,-22.76611328125,50.6591796875,26.79443359375
21017.206537083,-0.9122314453125,0.1737060546875,-0.1636962890625,-22.76611328125,50.6591796875,26.79443359375
21017.221122958,-0.9122314453125,0.1737060546875,-0.1636962890625,-22.76611328125,47.119140625,26.79443359375
21017.2213085,-0.9122314453125,0.1737060546875,-0.1636962890625,-22.76611328125,47.119140625,23.74267578125
21017.236103583,-0.90283203125,0.1737060546875,-0.1636962890625,-22.76611328125,47.119140625,23.74267578125
21017.236305041,-0.90283203125,0.1502685546875,-0.1636962890625,-22.76611328125,47.119140625,23.74267578125
21017.236410291,-0.90283203125,0.1502685546875,-0.126953125,-22.76611328125,47.119140625,23.74267578125
21017.250867166,-0.90283203125,0.1502685546875,-0.126953125,-22.76611328125,40.771484375,23.74267578125
21017.25101875,-0.90283203125,0.1502685546875,-0.126953125,-22.76611328125,40.771484375,19.53125
21017.267095625,-0.8896484375,0.1502685546875,-0.126953125,-22.76611328125,40.771484375,19.53125
21017.26714925,-0.8896484375,0.1314697265625,-0.126953125,-22.76611328125,40.771484375,19.53125
21017.267197416,-0.8896484375,0.1314697265625,-0.0875244140625,-22.76611328125,40.771484375,19.53125
21017.326394916,-0.8896484375,0.1314697265625,-0.0875244140625,-22.76611328125,34.66796875,19.53125
21017.326637208,-0.8896484375,0.1314697265625,-0.0875244140625,-22.76611328125,34.66796875,14.7705078125
21017.327276041,-0.8812255859375,0.1314697265625,-0.0875244140625,-22.76611328125,34.66796875,14.7705078125
21017.350939083,-0.8812255859375,0.1314697265625,0.0201416015625,-22.76611328125,34.66796875,14.7705078125
21017.351014625,-0.8812255859375,0.1314697265625,0.0201416015625,-28.38134765625,34.66796875,14.7705078125
21017.356180541,-0.8812255859375,0.1314697265625,0.0201416015625,-28.38134765625,20.44677734375,14.7705078125
21017.356352875,-0.8280029296875,0.1314697265625,0.0201416015625,-28.38134765625,20.44677734375,14.7705078125
21017.356447625,-0.8280029296875,0.069580078125,0.0201416015625,-28.38134765625,20.44677734375,14.7705078125
21017.356935875,-0.8280029296875,0.069580078125,0.10888671875,-28.38134765625,20.44677734375,14.7705078125
21017.371012083,-0.8280029296875,0.069580078125,0.10888671875,-28.38134765625,-18.12744140625,14.7705078125
21017.371181375,-0.8280029296875,0.069580078125,0.10888671875,-28.38134765625,-18.12744140625,-11.16943359375
21017.415013,-0.7906494140625,0.069580078125,0.10888671875,-28.38134765625,-18.12744140625,-11.16943359375
21017.431263958,-0.7906494140625,0.134521484375,0.10888671875,-28.38134765625,-18.12744140625,-11.16943359375
21017.431341958,-0.7906494140625,0.134521484375,0.0870361328125,-28.38134765625,-18.12744140625,-11.16943359375
21017.432653291,-0.7906494140625,0.134521484375,0.0870361328125,3.47900390625,-18.12744140625,-11.16943359375
21017.432843375,-0.787353515625,0.134521484375,0.0870361328125,3.47900390625,-18.12744140625,-11.16943359375
21017.451093708,-0.787353515625,0.134521484375,0.052734375,3.47900390625,-18.12744140625,-11.16943359375
21017.451159875,-0.787353515625,0.134521484375,0.052734375,12.14599609375,-18.12744140625,-11.16943359375
21017.45121575,-0.787353515625,0.134521484375,0.052734375,12.14599609375,-70.3125,-11.16943359375
21017.460937541,-0.7396240234375,0.134521484375,0.052734375,12.14599609375,-70.3125,-11.16943359375
21017.461135333,-0.7396240234375,0.2396240234375,0.052734375,12.14599609375,-70.3125,-11.16943359375
21017.467968666,-0.7396240234375,0.2396240234375,-0.143798828125,12.14599609375,-70.3125,-11.16943359375
21017.475986458,-0.7396240234375,0.2396240234375,-0.143798828125,12.14599609375,-101.74560546875,-11.16943359375
21017.476142625,-0.7396240234375,0.2396240234375,-0.143798828125,12.14599609375,-101.74560546875,-59.2041015625
21017.505823583,-0.733642578125,0.2396240234375,-0.143798828125,12.14599609375,-101.74560546875,-59.2041015625
21017.505984708,-0.733642578125,0.329833984375,-0.143798828125,12.14599609375,-101.74560546875,-59.2041015625
21017.5213405,-0.733642578125,0.329833984375,-0.2545166015625,12.14599609375,-101.74560546875,-59.2041015625
21017.521581958,-0.733642578125,0.329833984375,-0.2545166015625,12.14599609375,-110.77880859375,-59.2041015625
21017.521697125,-0.70703125,0.329833984375,-0.2545166015625,12.14599609375,-110.77880859375,-59.2041015625
21017.52195475,-0.70703125,0.424560546875,-0.2545166015625,12.14599609375,-110.77880859375,-59.2041015625
21017.535965541,-0.70703125,0.424560546875,-0.2545166015625,44.25048828125,-110.77880859375,-59.2041015625
21017.536141375,-0.70703125,0.424560546875,-0.2545166015625,44.25048828125,-114.501953125,-59.2041015625
21017.537342083,-0.70703125,0.424560546875,-0.2545166015625,44.25048828125,-114.501953125,-72.57080078125
21017.565985083,-0.6502685546875,0.424560546875,-0.2545166015625,44.25048828125,-114.501953125,-72.57080078125
21017.566167666,-0.6502685546875,0.4808349609375,-0.2545166015625,44.25048828125,-114.501953125,-72.57080078125
21017.566587875,-0.6502685546875,0.4808349609375,-0.3848876953125,44.25048828125,-114.501953125,-72.57080078125
21017.566654416,-0.6502685546875,0.4808349609375,-0.3848876953125,53.7109375,-114.501953125,-72.57080078125
21017.625841041,-0.595947265625,0.4808349609375,-0.3848876953125,53.7109375,-114.501953125,-72.57080078125
21017.627193833,-0.595947265625,0.5679931640625,-0.3848876953125,53.7109375,-114.501953125,-72.57080078125
21017.627419208,-0.595947265625,0.5679931640625,-0.4754638671875,53.7109375,-114.501953125,-72.57080078125
21017.687371,-0.595947265625,0.5679931640625,-0.4754638671875,53.7109375,-113.70849609375,-72.57080078125
21017.688062166,-0.595947265625,0.5679931640625,-0.4754638671875,53.7109375,-113.70849609375,-76.72119140625
21017.688285625,-0.406494140625,0.5679931640625,-0.4754638671875,53.7109375,-113.70849609375,-76.72119140625
21017.688450333,-0.406494140625,0.662109375,-0.4754638671875,53.7109375,-113.70849609375,-76.72119140625
21017.701431291,-0.406494140625,0.662109375,-0.4754638671875,53.7109375,-116.0888671875,-76.72119140625
21017.701485416,-0.406494140625,0.662109375,-0.4754638671875,53.7109375,-116.0888671875,-82.6416015625
21017.730271291,-0.2733154296875,0.662109375,-0.4754638671875,53.7109375,-116.0888671875,-82.6416015625
21017.735145916,-0.2733154296875,0.7352294921875,-0.4754638671875,53.7109375,-116.0888671875,-82.6416015625
21017.735191708,-0.2733154296875,0.7352294921875,-0.4505615234375,53.7109375,-116.0888671875,-82.6416015625
21017.735230583,-0.2733154296875,0.7352294921875,-0.4505615234375,79.9560546875,-116.0888671875,-82.6416015625
21017.746116791,-0.171875,0.7352294921875,-0.4505615234375,79.9560546875,-116.0888671875,-82.6416015625
21017.75116525,-0.171875,0.8133544921875,-0.4505615234375,79.9560546875,-116.0888671875,-82.6416015625
21017.751272875,-0.171875,0.8133544921875,-0.469482421875,79.9560546875,-116.0888671875,-82.6416015625
21017.761085791,-0.171875,0.8133544921875,-0.469482421875,79.9560546875,-127.01416015625,-82.6416015625
21017.761317708,-0.171875,0.8133544921875,-0.469482421875,79.9560546875,-127.01416015625,-88.0126953125
21017.776181041,-0.1282958984375,0.8133544921875,-0.469482421875,79.9560546875,-127.01416015625,-88.0126953125
21017.7764705,-0.1282958984375,0.8778076171875,-0.469482421875,79.9560546875,-127.01416015625,-88.0126953125
21017.776565291,-0.1282958984375,0.8778076171875,-0.5335693359375,79.9560546875,-127.01416015625,-88.0126953125
21017.791213416,-0.1282958984375,0.8778076171875,-0.5335693359375,79.9560546875,-129.57763671875,-88.0126953125
21017.791439166,-0.1282958984375,0.8778076171875,-0.5335693359375,79.9560546875,-129.57763671875,-87.7685546875
21017.82007475,-0.05908203125,0.8778076171875,-0.5335693359375,79.9560546875,-129.57763671875,-87.7685546875
21017.836207208,-0.05908203125,0.8616943359375,-0.5335693359375,79.9560546875,-129.57763671875,-87.7685546875
21017.836426083,-0.05908203125,0.8616943359375,-0.5570068359375,79.9560546875,-129.57763671875,-87.7685546875
21017.837021708,-0.05908203125,0.8616943359375,-0.5570068359375,69.580078125,-129.57763671875,-87.7685546875
21017.837244166,0.0067138671875,0.8616943359375,-0.5570068359375,69.580078125,-129.57763671875,-87.7685546875
21017.86598175,0.0067138671875,0.8616943359375,-0.4403076171875,69.580078125,-129.57763671875,-87.7685546875
21017.866131125,0.0067138671875,0.8616943359375,-0.4403076171875,45.41015625,-129.57763671875,-87.7685546875
21017.86656125,0.0067138671875,0.8616943359375,-0.4403076171875,45.41015625,-128.35693359375,-87.7685546875
21017.926147875,0.15625,0.8616943359375,-0.4403076171875,45.41015625,-128.35693359375,-87.7685546875
21017.926462375,0.15625,1.006103515625,-0.4403076171875,45.41015625,-128.35693359375,-87.7685546875
21017.926656375,0.15625,1.006103515625,-0.6024169921875,45.41015625,-128.35693359375,-87.7685546875
21017.955302666,0.15625,1.006103515625,-0.6024169921875,45.41015625,-128.35693359375,-93.07861328125
21017.984784833,0.290283203125,1.006103515625,-0.6024169921875,45.41015625,-128.35693359375,-93.07861328125
21017.98487875,0.290283203125,1.00341796875,-0.6024169921875,45.41015625,-128.35693359375,-93.07861328125
21017.985929541,0.290283203125,1.00341796875,-0.734130859375,45.41015625,-128.35693359375,-93.07861328125
21017.98617325,0.290283203125,1.00341796875,-0.734130859375,45.41015625,-99.7314453125,-93.07861328125
21017.986290833,0.290283203125,1.00341796875,-0.734130859375,45.41015625,-99.7314453125,-55.7861328125
21018.04571325,0.189453125,1.00341796875,-0.734130859375,45.41015625,-99.7314453125,-55.7861328125
21018.05063175,0.189453125,0.61083984375,-0.734130859375,45.41015625,-99.7314453125,-55.7861328125
21018.060982166,0.189453125,0.61083984375,-0.437255859375,45.41015625,-99.7314453125,-55.7861328125
21018.06755325,0.189453125,0.61083984375,-0.437255859375,45.41015625,-96.37451171875,-55.7861328125
21018.091783,0.4246826171875,0.61083984375,-0.437255859375,45.41015625,-96.37451171875,-55.7861328125
21018.092001958,0.4246826171875,0.8846435546875,-0.437255859375,45.41015625,-96.37451171875,-55.7861328125
21018.092334791,0.4246826171875,0.8846435546875,-0.437255859375,-34.60693359375,-96.37451171875,-55.7861328125
21018.092578708,0.4246826171875,0.8846435546875,-0.437255859375,-34.60693359375,-98.69384765625,-55.7861328125
21018.105947833,0.481689453125,0.8846435546875,-0.437255859375,-34.60693359375,-98.69384765625,-55.7861328125
21018.121332416,0.481689453125,0.7384033203125,-0.437255859375,-34.60693359375,-98.69384765625,-55.7861328125
21018.121596208,0.481689453125,0.7384033203125,-0.435302734375,-34.60693359375,-98.69384765625,-55.7861328125
21018.12172725,0.481689453125,0.7384033203125,-0.435302734375,-34.60693359375,-86.85302734375,-55.7861328125
21018.12203175,0.481689453125,0.7384033203125,-0.435302734375,-34.60693359375,-86.85302734375,-45.34912109375
21018.151279041,0.59814453125,0.7384033203125,-0.435302734375,-34.60693359375,-86.85302734375,-45.34912109375
21018.151496416,0.59814453125,0.7310791015625,-0.435302734375,-34.60693359375,-86.85302734375,-45.34912109375
21018.152067208,0.59814453125,0.7310791015625,-0.587158203125,-34.60693359375,-86.85302734375,-45.34912109375
21018.152242291,0.59814453125,0.7310791015625,-0.587158203125,-13.7939453125,-86.85302734375,-45.34912109375
21018.168658541,0.58740234375,0.7310791015625,-0.587158203125,-13.7939453125,-86.85302734375,-45.34912109375
21018.168797458,0.58740234375,0.7509765625,-0.587158203125,-13.7939453125,-86.85302734375,-45.34912109375
21018.16887325,0.58740234375,0.7509765625,-0.4766845703125,-13.7939453125,-86.85302734375,-45.34912109375
21018.226878625,0.58740234375,0.7509765625,-0.4766845703125,-13.7939453125,-75.5615234375,-45.34912109375
21018.227262041,0.58740234375,0.7509765625,-0.4766845703125,-13.7939453125,-75.5615234375,-46.69189453125
21018.227456166,0.629638671875,0.7509765625,-0.4766845703125,-13.7939453125,-75.5615234375,-46.69189453125
21018.256074833,0.629638671875,0.7509765625,-0.4283447265625,-13.7939453125,-75.5615234375,-46.69189453125
21018.2562555,0.629638671875,0.7509765625,-0.4283447265625,7.26318359375,-75.5615234375,-46.69189453125
21018.256728416,0.629638671875,0.7509765625,-0.4283447265625,7.26318359375,-72.69287109375,-46.69189453125
21018.256873416,0.745361328125,0.7509765625,-0.4283447265625,7.26318359375,-72.69287109375,-46.69189453125
21018.286626125,0.745361328125,0.7509765625,-0.385498046875,7.26318359375,-72.69287109375,-46.69189453125
21018.286814,0.745361328125,0.7509765625,-0.385498046875,27.28271484375,-72.69287109375,-46.69189453125
21018.287383041,0.745361328125,0.7509765625,-0.385498046875,27.28271484375,-73.73046875,-46.69189453125
21018.28755425,0.7587890625,0.7509765625,-0.385498046875,27.28271484375,-73.73046875,-46.69189453125
21018.301084166,0.7587890625,0.7509765625,-0.357421875,27.28271484375,-73.73046875,-46.69189453125
21018.301170875,0.7587890625,0.7509765625,-0.357421875,28.86962890625,-73.73046875,-46.69189453125
21018.302213875,0.7587890625,0.7509765625,-0.357421875,28.86962890625,-72.8759765625,-46.69189453125
21018.31807825,0.8062744140625,0.7509765625,-0.357421875,28.86962890625,-72.8759765625,-46.69189453125
21018.318160083,0.8062744140625,0.588134765625,-0.357421875,28.86962890625,-72.8759765625,-46.69189453125
21018.334181916,0.8062744140625,0.588134765625,-0.3428955078125,28.86962890625,-72.8759765625,-46.69189453125
21018.334252791,0.8062744140625,0.588134765625,-0.3428955078125,28.86962890625,-67.87109375,-46.69189453125
21018.35077725,0.8062744140625,0.588134765625,-0.3428955078125,28.86962890625,-67.87109375,-56.5185546875
21018.405419791,0.8187255859375,0.588134765625,-0.3428955078125,28.86962890625,-67.87109375,-56.5185546875
21018.42112225,0.8187255859375,0.5888671875,-0.3428955078125,28.86962890625,-67.87109375,-56.5185546875
21018.421227333,0.8187255859375,0.5888671875,-0.2984619140625,28.86962890625,-67.87109375,-56.5185546875
21018.436064291,0.8187255859375,0.5888671875,-0.2984619140625,28.86962890625,-64.5751953125,-56.5185546875
21018.436375166,0.8782958984375,0.5888671875,-0.2984619140625,28.86962890625,-64.5751953125,-56.5185546875
21018.436514291,0.8782958984375,0.558349609375,-0.2984619140625,28.86962890625,-64.5751953125,-56.5185546875
21018.45076075,0.8782958984375,0.558349609375,-0.2039794921875,28.86962890625,-64.5751953125,-56.5185546875
21018.450859083,0.8782958984375,0.558349609375,-0.2039794921875,28.86962890625,-64.5751953125,-57.31201171875
21018.540656833,0.8934326171875,0.558349609375,-0.2039794921875,28.86962890625,-64.5751953125,-57.31201171875
21018.556726625,0.8934326171875,0.5130615234375,-0.2039794921875,28.86962890625,-64.5751953125,-57.31201171875
21018.571565833,0.8934326171875,0.5130615234375,-0.2066650390625,28.86962890625,-64.5751953125,-57.31201171875
21018.571793333,0.8934326171875,0.5130615234375,-0.2066650390625,10.25390625,-64.5751953125,-57.31201171875
21018.573063083,0.87939453125,0.5130615234375,-0.2066650390625,10.25390625,-64.5751953125,-57.31201171875
21018.573340041,0.87939453125,0.5303955078125,-0.2066650390625,10.25390625,-64.5751953125,-57.31201171875
NEW_REP,,,,,,
21018.601165708,0.87939453125,0.5303955078125,-0.2066650390625,10.25390625,-44.7998046875,-57.31201171875
21018.617496,0.87939453125,0.5303955078125,-0.2066650390625,10.25390625,-44.7998046875,-41.8701171875
21018.617550083,0.864013671875,0.5303955078125,-0.2066650390625,10.25390625,-44.7998046875,-41.8701171875
21018.645246208,0.864013671875,0.4532470703125,-0.2066650390625,10.25390625,-44.7998046875,-41.8701171875
21018.650488958,0.864013671875,0.4532470703125,-0.1607666015625,10.25390625,-44.7998046875,-41.8701171875
21018.690370083,0.864013671875,0.4532470703125,-0.1607666015625,10.25390625,2.3193359375,-41.8701171875
21018.720248875,0.864013671875,0.4532470703125,-0.1607666015625,10.25390625,2.3193359375,-0.18310546875
21018.736373416,0.864013671875,0.5511474609375,-0.1607666015625,10.25390625,2.3193359375,-0.18310546875
21018.736597916,0.864013671875,0.5511474609375,-0.19384765625,10.25390625,2.3193359375,-0.18310546875
21018.736670625,0.864013671875,0.5511474609375,-0.19384765625,10.25390625,2.685546875,-0.18310546875
21018.736979125,0.83544921875,0.5511474609375,-0.19384765625,10.25390625,2.685546875,-0.18310546875
21018.75123675,0.83544921875,0.5511474609375,-0.2169189453125,10.25390625,2.685546875,-0.18310546875
21018.767307625,0.83544921875,0.5511474609375,-0.2169189453125,-1.220703125,2.685546875,-0.18310546875
21018.767365791,0.83544921875,0.5511474609375,-0.2169189453125,-1.220703125,11.5966796875,-0.18310546875
21018.767414416,0.85888671875,0.5511474609375,-0.2169189453125,-1.220703125,11.5966796875,-0.18310546875
21018.826161791,0.85888671875,0.57470703125,-0.2169189453125,-1.220703125,11.5966796875,-0.18310546875
21018.827778625,0.85888671875,0.57470703125,-0.2169189453125,-1.220703125,25.634765625,-0.18310546875
21018.828092958,0.85888671875,0.57470703125,-0.2169189453125,-1.220703125,25.634765625,17.76123046875
21018.85147575,0.8526611328125,0.57470703125,-0.2169189453125,-1.220703125,25.634765625,17.76123046875
21018.851568833,0.8526611328125,0.57470703125,-0.3326416015625,-1.220703125,25.634765625,17.76123046875
21018.851653083,0.8526611328125,0.57470703125,-0.3326416015625,-13.12255859375,25.634765625,17.76123046875
21018.886137708,0.8526611328125,0.57470703125,-0.3326416015625,-13.12255859375,38.14697265625,17.76123046875
21018.887295333,0.8680419921875,0.57470703125,-0.3326416015625,-13.12255859375,38.14697265625,17.76123046875
21018.887518875,0.8680419921875,0.7161865234375,-0.3326416015625,-13.12255859375,38.14697265625,17.76123046875
21018.887633791,0.8680419921875,0.7161865234375,-0.466552734375,-13.12255859375,38.14697265625,17.76123046875
21018.901361208,0.8680419921875,0.7161865234375,-0.466552734375,-13.12255859375,89.41650390625,17.76123046875
21018.901453541,0.8680419921875,0.7161865234375,-0.466552734375,-13.12255859375,89.41650390625,54.931640625
21018.945938291,0.9520263671875,0.7161865234375,-0.466552734375,-13.12255859375,89.41650390625,54.931640625
21018.947390083,0.9520263671875,0.77294921875,-0.466552734375,-13.12255859375,89.41650390625,54.931640625
21018.947686166,0.9520263671875,0.77294921875,-0.6055908203125,-13.12255859375,89.41650390625,54.931640625
21018.94782425,0.9520263671875,0.77294921875,-0.6055908203125,-37.17041015625,89.41650390625,54.931640625
21018.976076583,0.921630859375,0.77294921875,-0.6055908203125,-37.17041015625,89.41650390625,54.931640625
21018.976254666,0.921630859375,0.9429931640625,-0.6055908203125,-37.17041015625,89.41650390625,54.931640625
21018.977258125,0.921630859375,0.9429931640625,-0.6314697265625,-37.17041015625,89.41650390625,54.931640625
21018.977443375,0.921630859375,0.9429931640625,-0.6314697265625,-37.17041015625,162.109375,54.931640625
21019.020226291,0.8265380859375,0.9429931640625,-0.6314697265625,-37.17041015625,162.109375,54.931640625
21019.036409458,0.8265380859375,0.9764404296875,-0.6314697265625,-37.17041015625,162.109375,54.931640625
21019.036691583,0.8265380859375,0.9764404296875,-0.839599609375,-37.17041015625,162.109375,54.931640625
21019.036827833,0.8265380859375,0.9764404296875,-0.839599609375,-37.17041015625,180.6640625,54.931640625
21019.037130416,0.797119140625,0.9764404296875,-0.839599609375,-37.17041015625,180.6640625,54.931640625
21019.051715708,0.797119140625,0.9764404296875,-0.82763671875,-37.17041015625,180.6640625,54.931640625
21019.051831958,0.797119140625,0.9764404296875,-0.82763671875,-15.7470703125,180.6640625,54.931640625
21019.068389708,0.797119140625,0.9764404296875,-0.82763671875,-15.7470703125,189.02587890625,54.931640625
21019.127357791,0.6158447265625,0.9764404296875,-0.82763671875,-15.7470703125,189.02587890625,54.931640625
21019.127822458,0.6158447265625,0.8017578125,-0.82763671875,-15.7470703125,189.02587890625,54.931640625
21019.128042541,0.6158447265625,0.8017578125,-0.952392578125,-15.7470703125,189.02587890625,54.931640625
21019.1415025,0.6158447265625,0.8017578125,-0.952392578125,-15.7470703125,203.55224609375,54.931640625
21019.141755708,0.6158447265625,0.8017578125,-0.952392578125,-15.7470703125,203.55224609375,135.43701171875
21019.172784875,0.3660888671875,0.8017578125,-0.952392578125,-15.7470703125,203.55224609375,135.43701171875
21019.173267166,0.3660888671875,0.7154541015625,-0.952392578125,-15.7470703125,203.55224609375,135.43701171875
21019.1734125,0.3660888671875,0.7154541015625,-1.0224609375,-15.7470703125,203.55224609375,135.43701171875
21019.186379625,0.3660888671875,0.7154541015625,-1.0224609375,-13.7939453125,203.55224609375,135.43701171875
21019.201418625,0.3704833984375,0.7154541015625,-1.0224609375,-13.7939453125,203.55224609375,135.43701171875
21019.201775875,0.3704833984375,0.8822021484375,-1.0224609375,-13.7939453125,203.55224609375,135.43701171875
21019.201958083,0.3704833984375,0.8822021484375,-0.935791015625,-13.7939453125,203.55224609375,135.43701171875
21019.216013666,0.1168212890625,0.8822021484375,-0.935791015625,-13.7939453125,203.55224609375,135.43701171875
21019.216252708,0.1168212890625,0.6632080078125,-0.935791015625,-13.7939453125,203.55224609375,135.43701171875
21019.216391666,0.1168212890625,0.6632080078125,-0.5760498046875,-13.7939453125,203.55224609375,135.43701171875
21019.231072625,0.1168212890625,0.6632080078125,-0.5760498046875,-13.7939453125,227.05078125,135.43701171875
21019.231419208,0.1168212890625,0.6632080078125,-0.5760498046875,-13.7939453125,227.05078125,146.484375
21019.260770458,0.0576171875,0.6632080078125,-0.5760498046875,-13.7939453125,227.05078125,146.484375
21019.26776225,0.0576171875,0.51123046875,-0.5760498046875,-13.7939453125,227.05078125,146.484375
21019.267934291,0.0576171875,0.51123046875,-0.8076171875,-13.7939453125,227.05078125,146.484375
21019.268030958,0.0576171875,0.51123046875,-0.8076171875,-1.89208984375,227.05078125,146.484375
21019.290100166,-0.013916015625,0.51123046875,-0.8076171875,-1.89208984375,227.05078125,146.484375
21019.2909805,-0.013916015625,0.4658203125,-0.8076171875,-1.89208984375,227.05078125,146.484375
21019.291154791,-0.013916015625,0.4658203125,-0.6737060546875,-1.89208984375,227.05078125,146.484375
21019.292072125,-0.013916015625,0.4658203125,-0.6737060546875,-23.5595703125,227.05078125,146.484375
21019.321220958,-0.2471923828125,0.4658203125,-0.6737060546875,-23.5595703125,227.05078125,146.484375
21019.321481666,-0.2471923828125,0.3819580078125,-0.6737060546875,-23.5595703125,227.05078125,146.484375
21019.321798583,-0.2471923828125,0.3819580078125,-0.4239501953125,-23.5595703125,227.05078125,146.484375
21019.335964875,-0.2471923828125,0.3819580078125,-0.4239501953125,-66.58935546875,227.05078125,146.484375
21019.351830125,-0.3165283203125,0.3819580078125,-0.4239501953125,-66.58935546875,227.05078125,146.484375
21019.351926083,-0.3165283203125,0.2991943359375,-0.4239501953125,-66.58935546875,227.05078125,146.484375
21019.352003958,-0.3165283203125,0.2991943359375,-0.2696533203125,-66.58935546875,227.05078125,146.484375
21019.367680583,-0.3165283203125,0.2991943359375,-0.2696533203125,-66.58935546875,235.16845703125,146.484375
21019.367758708,-0.3165283203125,0.2991943359375,-0.2696533203125,-66.58935546875,235.16845703125,127.01416015625
21019.426157958,-0.3795166015625,0.2991943359375,-0.2696533203125,-66.58935546875,235.16845703125,127.01416015625
21019.426267541,-0.3795166015625,-0.3316650390625,-0.2696533203125,-66.58935546875,235.16845703125,127.01416015625
21019.428171083,-0.3795166015625,-0.3316650390625,0.9093017578125,-66.58935546875,235.16845703125,127.01416015625
21019.441030375,-0.3795166015625,-0.3316650390625,0.9093017578125,-66.58935546875,173.828125,127.01416015625
21019.449424541,-0.3795166015625,-0.3316650390625,0.9093017578125,-66.58935546875,173.828125,96.19140625
21019.470694083,-0.62744140625,-0.3316650390625,0.9093017578125,-66.58935546875,173.828125,96.19140625
21019.470786791,-0.62744140625,0.082275390625,0.9093017578125,-66.58935546875,173.828125,96.19140625
21019.471643208,-0.62744140625,0.082275390625,0.7547607421875,-66.58935546875,173.828125,96.19140625
21019.471730875,-0.62744140625,0.082275390625,0.7547607421875,34.3017578125,173.828125,96.19140625
21019.485707583,-0.6182861328125,0.082275390625,0.7547607421875,34.3017578125,173.828125,96.19140625
21019.485799083,-0.6182861328125,0.079833984375,0.7547607421875,34.3017578125,173.828125,96.19140625
21019.487084166,-0.6182861328125,0.079833984375,0.3333740234375,34.3017578125,173.828125,96.19140625
21019.500741583,-0.6182861328125,0.079833984375,0.3333740234375,34.3017578125,-107.177734375,96.19140625
21019.500840958,-0.6182861328125,0.079833984375,0.3333740234375,34.3017578125,-107.177734375,-54.99267578125
21019.516088833,-0.703369140625,0.079833984375,0.3333740234375,34.3017578125,-107.177734375,-54.99267578125
21019.516131166,-0.703369140625,0.08251953125,0.3333740234375,34.3017578125,-107.177734375,-54.99267578125
21019.516167625,-0.703369140625,0.08251953125,0.0751953125,34.3017578125,-107.177734375,-54.99267578125
21019.532872291,-0.703369140625,0.08251953125,0.0751953125,34.3017578125,-133.48388671875,-54.99267578125
21019.532914291,-0.703369140625,0.08251953125,0.0751953125,34.3017578125,-133.48388671875,-81.298828125
21019.549461541,-0.671630859375,0.08251953125,0.0751953125,34.3017578125,-133.48388671875,-81.298828125
21019.549501708,-0.671630859375,0.1705322265625,0.0751953125,34.3017578125,-133.48388671875,-81.298828125
21019.54953775,-0.671630859375,0.1705322265625,-0.06396484375,34.3017578125,-133.48388671875,-81.298828125
21019.566275458,-0.671630859375,0.1705322265625,-0.06396484375,34.3017578125,-144.6533203125,-81.298828125
21019.566322833,-0.671630859375,0.1705322265625,-0.06396484375,34.3017578125,-144.6533203125,-93.68896484375
21019.576039916,-0.57568359375,0.1705322265625,-0.06396484375,34.3017578125,-144.6533203125,-93.68896484375
21019.576163875,-0.57568359375,0.302490234375,-0.06396484375,34.3017578125,-144.6533203125,-93.68896484375
21019.576224291,-0.57568359375,0.302490234375,-0.16015625,34.3017578125,-144.6533203125,-93.68896484375
21019.605708375,-0.57568359375,0.302490234375,-0.16015625,34.3017578125,-159.66796875,-93.68896484375
21019.605827,-0.57568359375,0.302490234375,-0.16015625,34.3017578125,-159.66796875,-113.34228515625
21019.606596708,-0.4925537109375,0.302490234375,-0.16015625,34.3017578125,-159.66796875,-113.34228515625
21019.606678125,-0.4925537109375,0.3502197265625,-0.16015625,34.3017578125,-159.66796875,-113.34228515625
21019.641602916,-0.4925537109375,0.3502197265625,-0.16015625,34.3017578125,-169.25048828125,-113.34228515625
21019.643739083,-0.4925537109375,0.3502197265625,-0.16015625,34.3017578125,-169.25048828125,-124.08447265625
21019.7263055,-0.28662109375,0.3502197265625,-0.16015625,34.3017578125,-169.25048828125,-124.08447265625
21019.72642175,-0.28662109375,0.684814453125,-0.16015625,34.3017578125,-169.25048828125,-124.08447265625
21019.727621875,-0.28662109375,0.684814453125,-0.53662109375,34.3017578125,-169.25048828125,-124.08447265625
21019.727724583,-0.28662109375,0.684814453125,-0.53662109375,23.0712890625,-169.25048828125,-124.08447265625
21019.749949583,-0.2275390625,0.684814453125,-0.53662109375,23.0712890625,-169.25048828125,-124.08447265625
21019.7500005,-0.2275390625,0.61865234375,-0.53662109375,23.0712890625,-169.25048828125,-124.08447265625
21019.75004275,-0.2275390625,0.61865234375,-0.362060546875,23.0712890625,-169.25048828125,-124.08447265625
21019.755708333,-0.2275390625,0.61865234375,-0.362060546875,23.0712890625,-179.0771484375,-124.08447265625
21019.755812583,-0.2275390625,0.61865234375,-0.362060546875,23.0712890625,-179.0771484375,-127.99072265625
21019.860332458,0.332275390625,0.61865234375,-0.362060546875,23.0712890625,-179.0771484375,-127.99072265625
21019.889884416,0.332275390625,0.716552734375,-0.362060546875,23.0712890625,-179.0771484375,-127.99072265625
21019.890612875,0.332275390625,0.716552734375,-0.837890625,23.0712890625,-179.0771484375,-127.99072265625
21019.920635083,0.332275390625,0.716552734375,-0.837890625,23.0712890625,-179.62646484375,-127.99072265625
21019.936299125,0.3819580078125,0.716552734375,-0.837890625,23.0712890625,-179.62646484375,-127.99072265625
21019.936432041,0.3819580078125,0.716552734375,-0.6280517578125,23.0712890625,-179.62646484375,-127.99072265625
21019.936474833,0.3819580078125,0.716552734375,-0.6280517578125,32.2265625,-179.62646484375,-127.99072265625
21019.936901041,0.3819580078125,0.716552734375,-0.6280517578125,32.2265625,-179.62646484375,-141.7236328125
21019.950873375,0.763427734375,0.716552734375,-0.6280517578125,32.2265625,-179.62646484375,-141.7236328125
21019.951005416,0.763427734375,0.8314208984375,-0.6280517578125,32.2265625,-179.62646484375,-141.7236328125
21019.951045291,0.763427734375,0.8314208984375,-0.5682373046875,32.2265625,-179.62646484375,-141.7236328125
21019.980566375,0.763427734375,0.8314208984375,-0.5682373046875,32.2265625,-140.5029296875,-141.7236328125
21019.980664625,0.763427734375,0.8314208984375,-0.5682373046875,32.2265625,-140.5029296875,-91.24755859375
21019.981706833,0.822509765625,0.8314208984375,-0.5682373046875,32.2265625,-140.5029296875,-91.24755859375
21019.981783291,0.822509765625,0.828125,-0.5682373046875,32.2265625,-140.5029296875,-91.24755859375
21019.999840375,0.822509765625,0.828125,-0.5682373046875,32.2265625,-140.380859375,-91.24755859375
21019.999940041,0.822509765625,0.828125,-0.5682373046875,32.2265625,-140.380859375,-89.29443359375
21020.02580275,0.8294677734375,0.828125,-0.5682373046875,32.2265625,-140.380859375,-89.29443359375
21020.02591725,0.8294677734375,0.783447265625,-0.5682373046875,32.2265625,-140.380859375,-89.29443359375
21020.0267135,0.8294677734375,0.783447265625,-0.4820556640625,32.2265625,-140.380859375,-89.29443359375
21020.033411208,0.8294677734375,0.783447265625,-0.4820556640625,8.97216796875,-140.380859375,-89.29443359375
21020.055765958,0.8455810546875,0.783447265625,-0.4820556640625,8.97216796875,-140.380859375,-89.29443359375
21020.055906208,0.8455810546875,0.7786865234375,-0.4820556640625,8.97216796875,-140.380859375,-89.29443359375
21020.056707458,0.8455810546875,0.7786865234375,-0.418212890625,8.97216796875,-140.380859375,-89.29443359375
21020.0568455,0.8455810546875,0.7786865234375,-0.418212890625,24.47509765625,-140.380859375,-89.29443359375
21020.132314958,0.8817138671875,0.7786865234375,-0.418212890625,24.47509765625,-140.380859375,-89.29443359375
21020.146606833,0.8817138671875,0.6148681640625,-0.418212890625,24.47509765625,-140.380859375,-89.29443359375
21020.146894333,0.8817138671875,0.6148681640625,-0.40869140625,24.47509765625,-140.380859375,-89.29443359375
21020.147030583,0.8817138671875,0.6148681640625,-0.40869140625,35.94970703125,-140.380859375,-89.29443359375
21020.147301291,0.921142578125,0.6148681640625,-0.40869140625,35.94970703125,-140.380859375,-89.29443359375
21020.207547708,0.921142578125,0.6148681640625,-0.3701171875,35.94970703125,-140.380859375,-89.29443359375
21020.208356875,0.921142578125,0.6148681640625,-0.3701171875,11.23046875,-140.380859375,-89.29443359375
21020.208585291,0.921142578125,0.6148681640625,-0.3701171875,11.23046875,-96.86279296875,-89.29443359375
21020.208786,0.842529296875,0.6148681640625,-0.3701171875,11.23046875,-96.86279296875,-89.29443359375
21020.233445708,0.842529296875,0.6148681640625,-0.2803955078125,11.23046875,-96.86279296875,-89.29443359375
21020.233501416,0.842529296875,0.6148681640625,-0.2803955078125,-11.3525390625,-96.86279296875,-89.29443359375
21020.235710875,0.842529296875,0.6148681640625,-0.2803955078125,-11.3525390625,-59.50927734375,-89.29443359375
21020.250833666,0.8482666015625,0.6148681640625,-0.2803955078125,-11.3525390625,-59.50927734375,-89.29443359375
21020.251005916,0.8482666015625,0.544921875,-0.2803955078125,-11.3525390625,-59.50927734375,-89.29443359375
21020.251094958,0.8482666015625,0.544921875,-0.2742919921875,-11.3525390625,-59.50927734375,-89.29443359375
21020.26698175,0.8482666015625,0.544921875,-0.2742919921875,-11.3525390625,-44.49462890625,-89.29443359375
21020.295772541,0.8482666015625,0.544921875,-0.2742919921875,-11.3525390625,-44.49462890625,-26.30615234375
21020.29593175,0.81640625,0.544921875,-0.2742919921875,-11.3525390625,-44.49462890625,-26.30615234375
21020.296762916,0.81640625,0.5479736328125,-0.2742919921875,-11.3525390625,-44.49462890625,-26.30615234375
21020.296920083,0.81640625,0.5479736328125,-0.240478515625,-11.3525390625,-44.49462890625,-26.30615234375
21020.316892041,0.81640625,0.5479736328125,-0.240478515625,-11.3525390625,-39.1845703125,-26.30615234375
21020.325840791,0.81640625,0.5479736328125,-0.240478515625,-11.3525390625,-39.1845703125,-21.8505859375
21020.430660541,0.8436279296875,0.5479736328125,-0.240478515625,-11.3525390625,-39.1845703125,-21.8505859375
21020.435696375,0.8436279296875,0.506591796875,-0.240478515625,-11.3525390625,-39.1845703125,-21.8505859375
21020.435744625,0.8436279296875,0.506591796875,-0.2042236328125,-11.3525390625,-39.1845703125,-21.8505859375
21020.435784708,0.8436279296875,0.506591796875,-0.2042236328125,-11.3525390625,-30.09033203125,-21.8505859375
21020.44665125,0.8507080078125,0.506591796875,-0.2042236328125,-11.3525390625,-30.09033203125,-21.8505859375
21020.466985416,0.8507080078125,0.441162109375,-0.2042236328125,-11.3525390625,-30.09033203125,-21.8505859375
21020.467191916,0.8507080078125,0.441162109375,-0.167236328125,-11.3525390625,-30.09033203125,-21.8505859375
21020.467232083,0.8507080078125,0.441162109375,-0.167236328125,-11.3525390625,-19.287109375,-21.8505859375
21020.467269208,0.8507080078125,0.441162109375,-0.167236328125,-11.3525390625,-19.287109375,-7.9345703125
21020.506346333,0.9151611328125,0.441162109375,-0.167236328125,-11.3525390625,-19.287109375,-7.9345703125
21020.510617458,0.9151611328125,0.47021484375,-0.167236328125,-11.3525390625,-19.287109375,-7.9345703125
21020.5109145,0.9151611328125,0.47021484375,-0.118896484375,-11.3525390625,-19.287109375,-7.9345703125
21020.511006041,0.9151611328125,0.47021484375,-0.118896484375,-14.09912109375,-19.287109375,-7.9345703125
21020.521013833,0.9066162109375,0.47021484375,-0.118896484375,-14.09912109375,-19.287109375,-7.9345703125
21020.536025416,0.9066162109375,0.480712890625,-0.118896484375,-14.09912109375,-19.287109375,-7.9345703125
21020.536132166,0.9066162109375,0.480712890625,-0.1171875,-14.09912109375,-19.287109375,-7.9345703125
NEW_REP,,,,,,
21020.611064291,0.9066162109375,0.480712890625,-0.1171875,-14.09912109375,-3.0517578125,-7.9345703125
21020.611904625,0.9066162109375,0.480712890625,-0.1171875,-14.09912109375,-3.0517578125,-1.03759765625
21020.612153875,0.8568115234375,0.480712890625,-0.1171875,-14.09912109375,-3.0517578125,-1.03759765625
21020.641262416,0.8568115234375,0.520263671875,-0.1171875,-14.09912109375,-3.0517578125,-1.03759765625
21020.64149275,0.8568115234375,0.520263671875,-0.1171875,-14.09912109375,10.498046875,-1.03759765625
21020.64195475,0.8568115234375,0.520263671875,-0.1171875,-14.09912109375,10.498046875,9.70458984375
21020.642149333,0.87255859375,0.520263671875,-0.1171875,-14.09912109375,10.498046875,9.70458984375
21020.656299791,0.87255859375,0.520263671875,-0.3155517578125,-14.09912109375,10.498046875,9.70458984375
21020.671100875,0.87255859375,0.520263671875,-0.3155517578125,6.103515625,10.498046875,9.70458984375
21020.747197416,0.87255859375,0.520263671875,-0.3155517578125,6.103515625,54.26025390625,9.70458984375
21020.747931875,0.894775390625,0.520263671875,-0.3155517578125,6.103515625,54.26025390625,9.70458984375
21020.7481885,0.894775390625,0.541015625,-0.3155517578125,6.103515625,54.26025390625,9.70458984375
21020.748334625,0.894775390625,0.541015625,-0.3155517578125,6.103515625,64.88037109375,9.70458984375
21020.767981,0.8651123046875,0.541015625,-0.3155517578125,6.103515625,64.88037109375,9.70458984375
21020.768090291,0.8651123046875,0.6273193359375,-0.3155517578125,6.103515625,64.88037109375,9.70458984375
21020.768177208,0.8651123046875,0.6273193359375,-0.330810546875,6.103515625,64.88037109375,9.70458984375
21020.790066875,0.8651123046875,0.6273193359375,-0.330810546875,6.103515625,64.88037109375,52.79541015625
21020.85204425,0.826904296875,0.6273193359375,-0.330810546875,6.103515625,64.88037109375,52.79541015625
21020.8525095,0.826904296875,0.749755859375,-0.330810546875,6.103515625,64.88037109375,52.79541015625
21020.866401166,0.826904296875,0.749755859375,-0.4754638671875,6.103515625,64.88037109375,52.79541015625
21020.86660525,0.826904296875,0.749755859375,-0.4754638671875,6.103515625,64.88037109375,72.8759765625
21020.866670875,0.826904296875,0.6702880859375,-0.4754638671875,6.103515625,64.88037109375,72.8759765625
21020.867219291,0.826904296875,0.6702880859375,-0.621337890625,6.103515625,64.88037109375,72.8759765625
21020.884290625,0.826904296875,0.6702880859375,-0.621337890625,6.103515625,128.7841796875,72.8759765625
21020.884366875,0.826904296875,0.6702880859375,-0.621337890625,6.103515625,128.7841796875,82.58056640625
21020.911362875,0.7298583984375,0.6702880859375,-0.621337890625,6.103515625,128.7841796875,82.58056640625
21020.918093958,0.7298583984375,0.737548828125,-0.621337890625,6.103515625,128.7841796875,82.58056640625
21020.918160875,0.7298583984375,0.737548828125,-0.65576171875,6.103515625,128.7841796875,82.58056640625
21020.918219083,0.7298583984375,0.737548828125,-0.65576171875,-26.4892578125,128.7841796875,82.58056640625
21020.926761875,0.6724853515625,0.737548828125,-0.65576171875,-26.4892578125,128.7841796875,82.58056640625
21020.9269045,0.6724853515625,0.6875,-0.65576171875,-26.4892578125,128.7841796875,82.58056640625
21020.92702325,0.6724853515625,0.6875,-0.66357421875,-26.4892578125,128.7841796875,82.58056640625
21020.956743583,0.6724853515625,0.6875,-0.66357421875,-26.4892578125,140.93017578125,82.58056640625
21020.957039958,0.6724853515625,0.6875,-0.66357421875,-26.4892578125,140.93017578125,81.72607421875
21020.957185708,0.6004638671875,0.6875,-0.66357421875,-26.4892578125,140.93017578125,81.72607421875
21020.984612916,0.6004638671875,0.6875,-0.6763916015625,-26.4892578125,140.93017578125,81.72607421875
21020.984706375,0.6004638671875,0.6875,-0.6763916015625,-25.20751953125,140.93017578125,81.72607421875
21020.984783208,0.6004638671875,0.6875,-0.6763916015625,-25.20751953125,141.54052734375,81.72607421875
21021.031609958,0.55322265625,0.6875,-0.6763916015625,-25.20751953125,141.54052734375,81.72607421875
21021.031897416,0.55322265625,0.7191162109375,-0.6763916015625,-25.20751953125,141.54052734375,81.72607421875
21021.032058916,0.55322265625,0.7191162109375,-0.734619140625,-25.20751953125,141.54052734375,81.72607421875
21021.046090083,0.55322265625,0.7191162109375,-0.734619140625,-25.20751953125,141.9677734375,81.72607421875
21021.046309208,0.55322265625,0.7191162109375,-0.734619140625,-25.20751953125,141.9677734375,75.62255859375
21021.091582083,0.2989501953125,0.7191162109375,-0.734619140625,-25.20751953125,141.9677734375,75.62255859375
21021.092978625,0.2989501953125,0.60546875,-0.734619140625,-25.20751953125,141.9677734375,75.62255859375
21021.093264833,0.2989501953125,0.60546875,-0.8365478515625,-25.20751953125,141.9677734375,75.62255859375
21021.093400958,0.2989501953125,0.60546875,-0.8365478515625,-25.20751953125,154.541015625,75.62255859375
21021.127070666,0.133056640625,0.60546875,-0.8365478515625,-25.20751953125,154.541015625,75.62255859375
21021.128772875,0.133056640625,0.6646728515625,-0.8365478515625,-25.20751953125,154.541015625,75.62255859375
21021.128980416,0.133056640625,0.6646728515625,-0.8800048828125,-25.20751953125,154.541015625,75.62255859375
21021.136409666,0.133056640625,0.6646728515625,-0.8800048828125,-64.39208984375,154.541015625,75.62255859375
21021.136656791,0.0360107421875,0.6646728515625,-0.8800048828125,-64.39208984375,154.541015625,75.62255859375
21021.136758708,0.0360107421875,0.5880126953125,-0.8800048828125,-64.39208984375,154.541015625,75.62255859375
21021.136927166,0.0360107421875,0.5880126953125,-0.82080078125,-64.39208984375,154.541015625,75.62255859375
21021.151124041,0.0360107421875,0.5880126953125,-0.82080078125,-64.39208984375,157.3486328125,75.62255859375
21021.167936583,0.0360107421875,0.5880126953125,-0.82080078125,-64.39208984375,157.3486328125,58.89892578125
21021.18416425,-0.0263671875,0.5880126953125,-0.82080078125,-64.39208984375,157.3486328125,58.89892578125
21021.184241875,-0.0263671875,0.5267333984375,-0.82080078125,-64.39208984375,157.3486328125,58.89892578125
21021.184305791,-0.0263671875,0.5267333984375,-0.888671875,-64.39208984375,157.3486328125,58.89892578125
21021.200233291,-0.0263671875,0.5267333984375,-0.888671875,-64.39208984375,161.92626953125,58.89892578125
21021.200292916,-0.0263671875,0.5267333984375,-0.888671875,-64.39208984375,161.92626953125,54.0771484375
21021.225672541,-0.1942138671875,0.5267333984375,-0.888671875,-64.39208984375,161.92626953125,54.0771484375
21021.226852375,-0.1942138671875,0.345947265625,-0.888671875,-64.39208984375,161.92626953125,54.0771484375
21021.241012583,-0.1942138671875,0.345947265625,-0.8524169921875,-64.39208984375,161.92626953125,54.0771484375
21021.256232708,-0.1942138671875,0.345947265625,-0.8524169921875,-72.6318359375,161.92626953125,54.0771484375
21021.256457041,-0.2650146484375,0.345947265625,-0.8524169921875,-72.6318359375,161.92626953125,54.0771484375
21021.256571416,-0.2650146484375,0.453125,-0.8524169921875,-72.6318359375,161.92626953125,54.0771484375
21021.257128333,-0.2650146484375,0.453125,-0.8524169921875,-72.6318359375,174.01123046875,54.0771484375
21021.271116958,-0.3590087890625,0.453125,-0.8524169921875,-72.6318359375,174.01123046875,54.0771484375
21021.27132175,-0.3590087890625,0.43798828125,-0.8524169921875,-72.6318359375,174.01123046875,54.0771484375
21021.271395833,-0.3590087890625,0.43798828125,-0.688720703125,-72.6318359375,174.01123046875,54.0771484375
21021.330686083,-0.3590087890625,0.43798828125,-0.688720703125,-72.6318359375,170.71533203125,54.0771484375
21021.352295958,-0.3590087890625,0.43798828125,-0.688720703125,-72.6318359375,170.71533203125,25.32958984375
21021.352401541,-0.387451171875,0.43798828125,-0.688720703125,-72.6318359375,170.71533203125,25.32958984375
21021.352498416,-0.387451171875,0.43798828125,-0.6400146484375,-72.6318359375,170.71533203125,25.32958984375
21021.352597625,-0.387451171875,0.43798828125,-0.6400146484375,-62.19482421875,170.71533203125,25.32958984375
21021.361161833,-0.5653076171875,0.43798828125,-0.6400146484375,-62.19482421875,170.71533203125,25.32958984375
21021.361427083,-0.5653076171875,0.4013671875,-0.6400146484375,-62.19482421875,170.71533203125,25.32958984375
21021.361530916,-0.5653076171875,0.4013671875,-0.3529052734375,-62.19482421875,170.71533203125,25.32958984375
21021.376165666,-0.5653076171875,0.4013671875,-0.3529052734375,-62.19482421875,156.55517578125,25.32958984375
21021.37637225,-0.5653076171875,0.4013671875,-0.3529052734375,-62.19482421875,156.55517578125,27.89306640625
21021.405237,-0.6514892578125,0.4013671875,-0.3529052734375,-62.19482421875,156.55517578125,27.89306640625
21021.421565125,-0.6514892578125,0.3013916015625,-0.3529052734375,-62.19482421875,156.55517578125,27.89306640625
21021.421863958,-0.6514892578125,0.3013916015625,-0.1551513671875,-62.19482421875,156.55517578125,27.89306640625
