Timestamp,Accel_X,Accel_Y,Accel_Z,Gyro_X,Gyro_Y,Gyro_Z
20600.567945916,-0.0577392578125,0.0,0.0,0.0,0.0,0.0
20600.596307583,-0.05615234375,0.0,0.0,0.0,0.0,0.0
20600.627107041,-0.0548095703125,0.0,0.0,0.0,0.0,0.0
20600.627284666,-0.0548095703125,0.67919921875,0.0,0.0,0.0,0.0
20600.642750333,-0.0509033203125,0.67919921875,0.0,0.0,0.0,0.0
20600.642814625,-0.0509033203125,0.68505859375,0.0,0.0,0.0,0.0
20600.672503916,-0.0501708984375,0.68505859375,0.0,0.0,0.0,0.0
20600.67258825,-0.0501708984375,0.68505859375,0.0,0.0,0.0,0.0
20600.703258416,-0.047119140625,0.68505859375,0.0,0.0,0.0,0.0
20600.703546958,-0.047119140625,0.6771240234375,0.0,0.0,0.0,0.0
20600.703722291,-0.047119140625,0.6771240234375,-0.7261962890625,0.0,0.0,0.0
20600.70457825,-0.04833984375,0.6771240234375,-0.7261962890625,0.0,0.0,0.0
20600.733006125,-0.051513671875,0.6771240234375,-0.7261962890625,0.0,0.0,0.0
20600.733086291,-0.051513671875,0.68408203125,-0.7261962890625,0.0,0.0,0.0
20600.733279833,-0.051513671875,0.68408203125,-0.7347412109375,0.0,0.0,0.0
20600.748383,-0.051513671875,0.68408203125,-0.7347412109375,0.48828125,0.0,0.0
20600.777051333,-0.0509033203125,0.68408203125,-0.7347412109375,0.48828125,0.0,0.0
20600.778245375,-0.0509033203125,0.6888427734375,-0.7347412109375,0.48828125,0.0,0.0
20600.77843575,-0.0509033203125,0.6888427734375,-0.7279052734375,0.48828125,0.0,0.0
20600.792014458,-0.0513916015625,0.6888427734375,-0.7279052734375,0.48828125,0.0,0.0
20600.792202208,-0.0513916015625,0.68798828125,-0.7279052734375,0.48828125,0.0,0.0
20600.793537583,-0.0513916015625,0.68798828125,-0.7222900390625,0.48828125,0.0,0.0
20600.807202041,-0.0513916015625,0.68798828125,-0.7222900390625,0.48828125,0.1220703125,0.0
20600.807339166,-0.0513916015625,0.68798828125,-0.7222900390625,0.48828125,0.1220703125,0.54931640625
20600.82258825,-0.0517578125,0.68798828125,-0.7222900390625,0.48828125,0.1220703125,0.54931640625
20600.822691708,-0.0517578125,0.6875,-0.7222900390625,0.48828125,0.1220703125,0.54931640625
20600.823573083,-0.0517578125,0.6875,-0.7222900390625,0.48828125,0.1220703125,0.54931640625
20600.838766458,-0.0517578125,0.6875,-0.7222900390625,0.48828125,-0.244140625,0.54931640625
20600.838847666,-0.0517578125,0.6875,-0.7222900390625,0.48828125,-0.244140625,0.67138671875
20600.856097125,-0.0496826171875,0.6875,-0.7222900390625,0.48828125,-0.244140625,0.67138671875
20600.856197875,-0.0496826171875,0.684326171875,-0.7222900390625,0.48828125,-0.244140625,0.67138671875
20600.856283333,-0.0496826171875,0.684326171875,-0.7188720703125,0.48828125,-0.244140625,0.67138671875
20600.87251575,-0.0496826171875,0.684326171875,-0.7188720703125,0.48828125,-0.54931640625,0.67138671875
20600.87260825,-0.0496826171875,0.684326171875,-0.7188720703125,0.48828125,-0.54931640625,0.732421875
20600.882314375,-0.049072265625,0.684326171875,-0.7188720703125,0.48828125,-0.54931640625,0.732421875
20600.882693791,-0.049072265625,0.6953125,-0.7188720703125,0.48828125,-0.54931640625,0.732421875
20600.889076166,-0.049072265625,0.6953125,-0.71044921875,0.48828125,-0.54931640625,0.732421875
20600.912564375,-0.049072265625,0.6953125,-0.71044921875,0.48828125,-1.52587890625,0.732421875
20600.914296125,-0.049072265625,0.6953125,-0.71044921875,0.48828125,-1.52587890625,0.9765625
20600.914536416,-0.0445556640625,0.6953125,-0.71044921875,0.48828125,-1.52587890625,0.9765625
20600.914665208,-0.0445556640625,0.69775390625,-0.71044921875,0.48828125,-1.52587890625,0.9765625
20600.927497833,-0.0445556640625,0.69775390625,-0.71044921875,0.48828125,-2.74658203125,0.9765625
20600.927724791,-0.0445556640625,0.69775390625,-0.71044921875,0.48828125,-2.74658203125,1.77001953125
20600.957191666,-0.0260009765625,0.69775390625,-0.71044921875,0.48828125,-2.74658203125,1.77001953125
20600.958590916,-0.0260009765625,0.7147216796875,-0.71044921875,0.48828125,-2.74658203125,1.77001953125
20600.958882083,-0.0260009765625,0.7147216796875,-0.6593017578125,0.48828125,-2.74658203125,1.77001953125
20600.959019166,-0.0260009765625,0.7147216796875,-0.6593017578125,9.94873046875,-2.74658203125,1.77001953125
20600.972805416,-0.0224609375,0.7147216796875,-0.6593017578125,9.94873046875,-2.74658203125,1.77001953125
20600.972894083,-0.0224609375,0.71142578125,-0.6593017578125,9.94873046875,-2.74658203125,1.77001953125
20600.972966958,-0.0224609375,0.71142578125,-0.6016845703125,9.94873046875,-2.74658203125,1.77001953125
20601.001049125,-0.0224609375,0.71142578125,-0.6016845703125,9.94873046875,-8.1787109375,1.77001953125
20601.003406625,-0.0224609375,0.71142578125,-0.6016845703125,9.94873046875,-8.1787109375,0.67138671875
20601.003588958,-0.020263671875,0.71142578125,-0.6016845703125,9.94873046875,-8.1787109375,0.67138671875
20601.0199315,-0.020263671875,0.71142578125,-0.507568359375,9.94873046875,-8.1787109375,0.67138671875
20601.020256125,-0.020263671875,0.71142578125,-0.507568359375,27.099609375,-8.1787109375,0.67138671875
20601.02040075,-0.020263671875,0.71142578125,-0.507568359375,27.099609375,-16.6015625,0.67138671875
20601.039270958,-0.019287109375,0.71142578125,-0.507568359375,27.099609375,-16.6015625,0.67138671875
20601.039361333,-0.019287109375,0.67626953125,-0.507568359375,27.099609375,-16.6015625,0.67138671875
20601.039435125,-0.019287109375,0.67626953125,-0.4754638671875,27.099609375,-16.6015625,0.67138671875
20601.0621205,-0.019287109375,0.67626953125,-0.4754638671875,27.099609375,-27.77099609375,0.67138671875
20601.062294333,-0.019287109375,0.67626953125,-0.4754638671875,27.099609375,-27.77099609375,-1.46484375
20601.06285825,0.0225830078125,0.67626953125,-0.4754638671875,27.099609375,-27.77099609375,-1.46484375
20601.092553208,0.0225830078125,0.6904296875,-0.4754638671875,27.099609375,-27.77099609375,-1.46484375
20601.092760875,0.0225830078125,0.6904296875,-0.4754638671875,27.099609375,-42.66357421875,-1.46484375
20601.093186208,0.0225830078125,0.6904296875,-0.4754638671875,27.099609375,-42.66357421875,-6.04248046875
20601.107136208,0.0826416015625,0.6904296875,-0.4754638671875,27.099609375,-42.66357421875,-6.04248046875
20601.107361125,0.0826416015625,0.680908203125,-0.4754638671875,27.099609375,-42.66357421875,-6.04248046875
20601.10747525,0.0826416015625,0.680908203125,-0.477294921875,27.099609375,-42.66357421875,-6.04248046875
20601.122172625,0.0826416015625,0.680908203125,-0.477294921875,27.099609375,-42.66357421875,-12.8173828125
20601.182311958,0.1796875,0.680908203125,-0.477294921875,27.099609375,-42.66357421875,-12.8173828125
20601.18253925,0.1796875,0.8232421875,-0.477294921875,27.099609375,-42.66357421875,-12.8173828125
20601.186063333,0.1796875,0.8232421875,-0.64306640625,27.099609375,-42.66357421875,-12.8173828125
20601.186174666,0.1796875,0.8232421875,-0.64306640625,27.099609375,-66.22314453125,-12.8173828125
20601.222004875,0.1884765625,0.8232421875,-0.64306640625,27.099609375,-66.22314453125,-12.8173828125
20601.222045875,0.1884765625,0.77099609375,-0.64306640625,27.099609375,-66.22314453125,-12.8173828125
20601.222075666,0.1884765625,0.77099609375,-0.601806640625,27.099609375,-66.22314453125,-12.8173828125
20601.242123833,0.1884765625,0.77099609375,-0.601806640625,27.099609375,-66.10107421875,-12.8173828125
20601.242285625,0.197021484375,0.77099609375,-0.601806640625,27.099609375,-66.10107421875,-12.8173828125
20601.242863458,0.197021484375,0.6876220703125,-0.601806640625,27.099609375,-66.10107421875,-12.8173828125
20601.243056333,0.197021484375,0.6876220703125,-0.5257568359375,27.099609375,-66.10107421875,-12.8173828125
20601.271853833,0.197021484375,0.6876220703125,-0.5257568359375,27.099609375,-78.2470703125,-12.8173828125
20601.272043083,0.197021484375,0.6876220703125,-0.5257568359375,27.099609375,-78.2470703125,-24.71923828125
20601.27275975,0.3082275390625,0.6876220703125,-0.5257568359375,27.099609375,-78.2470703125,-24.71923828125
20601.346905041,0.3082275390625,0.6876220703125,-0.5665283203125,27.099609375,-78.2470703125,-24.71923828125
20601.348237958,0.3082275390625,0.6876220703125,-0.5665283203125,7.62939453125,-78.2470703125,-24.71923828125
20601.348571416,0.3082275390625,0.6876220703125,-0.5665283203125,7.62939453125,-77.33154296875,-24.71923828125
20601.348977916,0.306640625,0.6876220703125,-0.5665283203125,7.62939453125,-77.33154296875,-24.71923828125
20601.371868333,0.306640625,0.6876220703125,-0.470458984375,7.62939453125,-77.33154296875,-24.71923828125
20601.377389041,0.306640625,0.6876220703125,-0.470458984375,6.8359375,-77.33154296875,-24.71923828125
20601.377620625,0.306640625,0.6876220703125,-0.470458984375,6.8359375,-78.61328125,-24.71923828125
20601.377736791,0.4488525390625,0.6876220703125,-0.470458984375,6.8359375,-78.61328125,-24.71923828125
20601.378123,0.4488525390625,0.7144775390625,-0.470458984375,6.8359375,-78.61328125,-24.71923828125
20601.406030041,0.4488525390625,0.7144775390625,-0.470458984375,16.4794921875,-78.61328125,-24.71923828125
20601.422372458,0.4488525390625,0.7144775390625,-0.470458984375,16.4794921875,-82.21435546875,-24.71923828125
20601.422615541,0.4488525390625,0.7144775390625,-0.470458984375,16.4794921875,-82.21435546875,-43.15185546875
20601.422763041,0.4937744140625,0.7144775390625,-0.470458984375,16.4794921875,-82.21435546875,-43.15185546875
20601.422970375,0.4937744140625,0.76416015625,-0.470458984375,16.4794921875,-82.21435546875,-43.15185546875
20601.438228166,0.4937744140625,0.76416015625,-0.470458984375,16.4794921875,-82.21435546875,-50.47607421875
20601.497292416,0.6317138671875,0.76416015625,-0.470458984375,16.4794921875,-82.21435546875,-50.47607421875
20601.497535083,0.6317138671875,0.756103515625,-0.470458984375,16.4794921875,-82.21435546875,-50.47607421875
20601.512323041,0.6317138671875,0.756103515625,-0.5291748046875,16.4794921875,-82.21435546875,-50.47607421875
20601.512566375,0.6317138671875,0.756103515625,-0.5291748046875,15.0146484375,-82.21435546875,-50.47607421875
20601.512649166,0.6390380859375,0.756103515625,-0.5291748046875,15.0146484375,-82.21435546875,-50.47607421875
20601.541446291,0.6390380859375,0.756103515625,-0.41455078125,15.0146484375,-82.21435546875,-50.47607421875
20601.557248791,0.6390380859375,0.756103515625,-0.41455078125,20.99609375,-82.21435546875,-50.47607421875
20601.617679416,0.6390380859375,0.756103515625,-0.41455078125,20.99609375,-71.533203125,-50.47607421875
20601.663091375,0.6671142578125,0.756103515625,-0.41455078125,20.99609375,-71.533203125,-50.47607421875
20601.663492833,0.6671142578125,0.693115234375,-0.41455078125,20.99609375,-71.533203125,-50.47607421875
20601.66362925,0.6671142578125,0.693115234375,-0.41455078125,20.99609375,-64.94140625,-50.47607421875
20601.688854916,0.71923828125,0.693115234375,-0.41455078125,20.99609375,-64.94140625,-50.47607421875
20601.737951041,0.71923828125,0.693115234375,-0.306884765625,20.99609375,-64.94140625,-50.47607421875
20601.742977708,0.71923828125,0.693115234375,-0.306884765625,11.8408203125,-64.94140625,-50.47607421875
20601.752271041,0.71923828125,0.693115234375,-0.306884765625,11.8408203125,-60.9130859375,-50.47607421875
20601.752491291,0.830322265625,0.693115234375,-0.306884765625,11.8408203125,-60.9130859375,-50.47607421875
20601.752603083,0.830322265625,0.693115234375,-0.178466796875,11.8408203125,-60.9130859375,-50.47607421875
20601.781770958,0.830322265625,0.693115234375,-0.178466796875,11.8408203125,-59.5703125,-50.47607421875
20601.789009375,0.830322265625,0.693115234375,-0.178466796875,11.8408203125,-59.5703125,-58.77685546875
20601.797212458,0.9024658203125,0.693115234375,-0.178466796875,11.8408203125,-59.5703125,-58.77685546875
20601.797453625,0.9024658203125,0.52490234375,-0.178466796875,11.8408203125,-59.5703125,-58.77685546875
20601.797569166,0.9024658203125,0.52490234375,-0.1397705078125,11.8408203125,-59.5703125,-58.77685546875
20601.84151025,0.9156494140625,0.52490234375,-0.1397705078125,11.8408203125,-59.5703125,-58.77685546875
20601.842915708,0.9156494140625,0.5242919921875,-0.1397705078125,11.8408203125,-59.5703125,-58.77685546875
20601.843151791,0.9156494140625,0.5242919921875,-0.1455078125,11.8408203125,-59.5703125,-58.77685546875
20601.94725675,0.9156494140625,0.5242919921875,-0.1455078125,11.8408203125,-48.64501953125,-58.77685546875
20601.972442916,0.9156494140625,0.5242919921875,-0.1455078125,11.8408203125,-48.64501953125,-45.83740234375
20601.972505166,0.8720703125,0.5242919921875,-0.1455078125,11.8408203125,-48.64501953125,-45.83740234375
20601.972554583,0.8720703125,0.5557861328125,-0.1455078125,11.8408203125,-48.64501953125,-45.83740234375
20601.972602208,0.8720703125,0.5557861328125,-0.1455078125,11.8408203125,-33.14208984375,-45.83740234375
20601.977138958,0.911376953125,0.5557861328125,-0.1455078125,11.8408203125,-33.14208984375,-45.83740234375
20601.977350958,0.911376953125,0.4813232421875,-0.1455078125,11.8408203125,-33.14208984375,-45.83740234375
20601.992085166,0.911376953125,0.4813232421875,0.021240234375,11.8408203125,-33.14208984375,-45.83740234375
20601.99228875,0.911376953125,0.4813232421875,0.021240234375,11.8408203125,-19.47021484375,-45.83740234375
20601.992398333,0.911376953125,0.4813232421875,0.021240234375,11.8408203125,-19.47021484375,-18.61572265625
20602.037140625,0.864990234375,0.4813232421875,0.021240234375,11.8408203125,-19.47021484375,-18.61572265625
20602.042295333,0.864990234375,0.337158203125,0.021240234375,11.8408203125,-19.47021484375,-18.61572265625
20602.042366875,0.864990234375,0.337158203125,0.01220703125,11.8408203125,-19.47021484375,-18.61572265625
20602.04242975,0.864990234375,0.337158203125,0.01220703125,28.9306640625,-19.47021484375,-18.61572265625
20602.052303666,0.8974609375,0.337158203125,0.01220703125,28.9306640625,-19.47021484375,-18.61572265625
20602.071986375,0.8974609375,0.414306640625,0.01220703125,28.9306640625,-19.47021484375,-18.61572265625
20602.072069875,0.8974609375,0.414306640625,0.0399169921875,28.9306640625,-19.47021484375,-18.61572265625
20602.097190416,0.8974609375,0.414306640625,0.0399169921875,28.9306640625,-11.65771484375,-18.61572265625
20602.097377083,0.8974609375,0.414306640625,0.0399169921875,28.9306640625,-11.65771484375,-8.1787109375
20602.097894666,0.8887939453125,0.414306640625,0.0399169921875,28.9306640625,-11.65771484375,-8.1787109375
20602.098047958,0.8887939453125,0.4461669921875,0.0399169921875,28.9306640625,-11.65771484375,-8.1787109375
20602.112267208,0.8887939453125,0.4461669921875,0.0399169921875,28.9306640625,-7.080078125,-8.1787109375
20602.112437208,0.8887939453125,0.4461669921875,0.0399169921875,28.9306640625,-7.080078125,-0.732421875
20602.141387416,0.9052734375,0.4461669921875,0.0399169921875,28.9306640625,-7.080078125,-0.732421875
20602.142890208,0.9052734375,0.3519287109375,0.0399169921875,28.9306640625,-7.080078125,-0.732421875
20602.146547583,0.9052734375,0.3519287109375,0.0687255859375,28.9306640625,-7.080078125,-0.732421875
20602.172061958,0.9052734375,0.3519287109375,0.0687255859375,28.9306640625,-2.38037109375,-0.732421875
20602.175896833,0.907958984375,0.3519287109375,0.0687255859375,28.9306640625,-2.38037109375,-0.732421875
20602.176145166,0.907958984375,0.325927734375,0.0687255859375,28.9306640625,-2.38037109375,-0.732421875
20602.21785725,0.907958984375,0.325927734375,0.0479736328125,28.9306640625,-2.38037109375,-0.732421875
20602.218225833,0.907958984375,0.325927734375,0.0479736328125,28.9306640625,-0.244140625,-0.732421875
20602.218366,0.907958984375,0.325927734375,0.0479736328125,28.9306640625,-0.244140625,5.67626953125
20602.218461625,0.9058837890625,0.325927734375,0.0479736328125,28.9306640625,-0.244140625,5.67626953125
20602.239425833,0.9058837890625,0.325927734375,0.04541015625,28.9306640625,-0.244140625,5.67626953125
20602.239514291,0.9058837890625,0.325927734375,0.04541015625,-3.0517578125,-0.244140625,5.67626953125
20602.239588666,0.9058837890625,0.325927734375,0.04541015625,-3.0517578125,1.15966796875,5.67626953125
20602.262456625,0.9056396484375,0.325927734375,0.04541015625,-3.0517578125,1.15966796875,5.67626953125
20602.262675,0.9056396484375,0.3291015625,0.04541015625,-3.0517578125,1.15966796875,5.67626953125
20602.263357291,0.9056396484375,0.3291015625,0.07470703125,-3.0517578125,1.15966796875,5.67626953125
20602.263717583,0.9056396484375,0.3291015625,0.07470703125,0.18310546875,1.15966796875,5.67626953125
20602.280893708,0.90478515625,0.3291015625,0.07470703125,0.18310546875,1.15966796875,5.67626953125
20602.281080416,0.90478515625,0.3404541015625,0.07470703125,0.18310546875,1.15966796875,5.67626953125
20602.28117775,0.90478515625,0.3404541015625,0.06640625,0.18310546875,1.15966796875,5.67626953125
20602.292210416,0.90478515625,0.3404541015625,0.06640625,0.18310546875,2.25830078125,5.67626953125
20602.322078416,0.90478515625,0.3404541015625,0.06640625,0.18310546875,2.25830078125,5.4931640625
20602.322269333,0.90283203125,0.3404541015625,0.06640625,0.18310546875,2.25830078125,5.4931640625
20602.32284975,0.90283203125,0.3602294921875,0.06640625,0.18310546875,2.25830078125,5.4931640625
20602.352763375,0.90283203125,0.3602294921875,0.06640625,0.18310546875,1.220703125,5.4931640625
20602.35297825,0.90771484375,0.3602294921875,0.06640625,0.18310546875,1.220703125,5.4931640625
20602.372401208,0.90771484375,0.33740234375,0.06640625,0.18310546875,1.220703125,5.4931640625
20602.372496291,0.90771484375,0.33740234375,0.068359375,0.18310546875,1.220703125,5.4931640625
20602.396595208,0.90771484375,0.33740234375,0.068359375,0.18310546875,-0.42724609375,5.4931640625
20602.398043,0.90771484375,0.33740234375,0.068359375,0.18310546875,-0.42724609375,3.23486328125
20602.398277291,0.9122314453125,0.33740234375,0.068359375,0.18310546875,-0.42724609375,3.23486328125
20602.398390958,0.9122314453125,0.3575439453125,0.068359375,0.18310546875,-0.42724609375,3.23486328125
20602.412258833,0.9122314453125,0.3575439453125,0.068359375,0.18310546875,-0.30517578125,3.23486328125
20602.41243025,0.9122314453125,0.3575439453125,0.068359375,0.18310546875,-0.30517578125,2.685546875
20602.441581875,0.8824462890625,0.3575439453125,0.068359375,0.18310546875,-0.30517578125,2.685546875
20602.457314833,0.8824462890625,0.411376953125,0.068359375,0.18310546875,-0.30517578125,2.685546875
NEW_REP,,,,,,
20602.472295958,0.8824462890625,0.411376953125,-0.0703125,0.18310546875,-0.30517578125,2.685546875
20602.51738325,0.8824462890625,0.411376953125,-0.0703125,0.18310546875,6.04248046875,2.685546875
20602.532429083,0.8612060546875,0.411376953125,-0.0703125,0.18310546875,6.04248046875,2.685546875
20602.53268125,0.8612060546875,0.4815673828125,-0.0703125,0.18310546875,6.04248046875,2.685546875
20602.532772708,0.8612060546875,0.4815673828125,-0.0703125,0.18310546875,21.1181640625,2.685546875
20602.533278875,0.8602294921875,0.4815673828125,-0.0703125,0.18310546875,21.1181640625,2.685546875
20602.55574825,0.8602294921875,0.4815673828125,-0.2020263671875,0.18310546875,21.1181640625,2.685546875
20602.555824041,0.8602294921875,0.4815673828125,-0.2020263671875,-30.57861328125,21.1181640625,2.685546875
20602.555885916,0.8602294921875,0.4815673828125,-0.2020263671875,-30.57861328125,42.236328125,2.685546875
20602.561993916,0.87255859375,0.4815673828125,-0.2020263671875,-30.57861328125,42.236328125,2.685546875
20602.562144666,0.87255859375,0.784912109375,-0.2020263671875,-30.57861328125,42.236328125,2.685546875
20602.563486333,0.87255859375,0.784912109375,-0.40234375,-30.57861328125,42.236328125,2.685546875
20602.577119333,0.87255859375,0.784912109375,-0.40234375,-30.57861328125,70.4345703125,2.685546875
20602.577267541,0.87255859375,0.784912109375,-0.40234375,-30.57861328125,70.4345703125,52.55126953125
20602.592473375,0.8812255859375,0.784912109375,-0.40234375,-30.57861328125,70.4345703125,52.55126953125
20602.592654708,0.8812255859375,0.8621826171875,-0.40234375,-30.57861328125,70.4345703125,52.55126953125
20602.592752625,0.8812255859375,0.8621826171875,-0.5662841796875,-30.57861328125,70.4345703125,52.55126953125
20602.606992916,0.8812255859375,0.8621826171875,-0.5662841796875,-30.57861328125,104.91943359375,52.55126953125
20602.607142375,0.8812255859375,0.8621826171875,-0.5662841796875,-30.57861328125,104.91943359375,71.533203125
20602.62269675,0.990966796875,0.8621826171875,-0.5662841796875,-30.57861328125,104.91943359375,71.533203125
20602.638747208,0.990966796875,0.904296875,-0.5662841796875,-30.57861328125,104.91943359375,71.533203125
20602.638821916,0.990966796875,0.904296875,-0.48876953125,-30.57861328125,104.91943359375,71.533203125
20602.638884625,0.990966796875,0.904296875,-0.48876953125,-30.57861328125,124.93896484375,71.533203125
20602.682395541,0.990966796875,0.904296875,-0.48876953125,-30.57861328125,124.93896484375,87.95166015625
20602.682570708,1.0775146484375,0.904296875,-0.48876953125,-30.57861328125,124.93896484375,87.95166015625
20602.682994541,1.0775146484375,0.749267578125,-0.48876953125,-30.57861328125,124.93896484375,87.95166015625
20602.683180916,1.0775146484375,0.749267578125,-0.334228515625,-30.57861328125,124.93896484375,87.95166015625
20602.727220666,1.0775146484375,0.749267578125,-0.334228515625,-30.57861328125,129.21142578125,87.95166015625
20602.73870575,1.0775146484375,0.749267578125,-0.334228515625,-30.57861328125,129.21142578125,110.65673828125
20602.73896475,1.0675048828125,0.749267578125,-0.334228515625,-30.57861328125,129.21142578125,110.65673828125
20602.742129875,1.0675048828125,1.0472412109375,-0.334228515625,-30.57861328125,129.21142578125,110.65673828125
20602.742271708,1.0675048828125,1.0472412109375,-0.334228515625,-30.57861328125,171.9970703125,110.65673828125
20602.742352708,1.0675048828125,1.0472412109375,-0.334228515625,-30.57861328125,171.9970703125,139.6484375
20602.757111125,0.975341796875,1.0472412109375,-0.334228515625,-30.57861328125,171.9970703125,139.6484375
20602.757255708,0.975341796875,0.8699951171875,-0.334228515625,-30.57861328125,171.9970703125,139.6484375
20602.758568583,0.975341796875,0.8699951171875,-0.76806640625,-30.57861328125,171.9970703125,139.6484375
20602.772190916,0.975341796875,0.8699951171875,-0.76806640625,-30.57861328125,206.11572265625,139.6484375
20602.77226175,0.975341796875,0.8699951171875,-0.76806640625,-30.57861328125,206.11572265625,160.15625
20602.802278208,0.9488525390625,0.8699951171875,-0.76806640625,-30.57861328125,206.11572265625,160.15625
20602.802452875,0.9488525390625,0.9962158203125,-0.76806640625,-30.57861328125,206.11572265625,160.15625
20602.80319725,0.9488525390625,0.9962158203125,-0.849365234375,-30.57861328125,206.11572265625,160.15625
20602.8322175,0.9488525390625,0.9962158203125,-0.849365234375,-30.57861328125,223.876953125,160.15625
20602.832428791,0.9488525390625,0.9962158203125,-0.849365234375,-30.57861328125,223.876953125,168.8232421875
20602.832885916,0.6351318359375,0.9962158203125,-0.849365234375,-30.57861328125,223.876953125,168.8232421875
20602.855678708,0.6351318359375,0.9962158203125,-0.802734375,-30.57861328125,223.876953125,168.8232421875
20602.862212041,0.6351318359375,0.9962158203125,-0.802734375,-44.25048828125,223.876953125,168.8232421875
20602.862362041,0.6351318359375,0.9962158203125,-0.802734375,-44.25048828125,232.177734375,168.8232421875
20602.863804666,0.5172119140625,0.9962158203125,-0.802734375,-44.25048828125,232.177734375,168.8232421875
20602.863938916,0.5172119140625,0.7847900390625,-0.802734375,-44.25048828125,232.177734375,168.8232421875
20602.877136375,0.5172119140625,0.7847900390625,-0.802734375,-28.25927734375,232.177734375,168.8232421875
20602.877285125,0.5172119140625,0.7847900390625,-0.802734375,-28.25927734375,234.06982421875,168.8232421875
20602.921485,0.5172119140625,0.7847900390625,-0.802734375,-28.25927734375,234.06982421875,172.05810546875
20602.938904541,0.307373046875,0.7847900390625,-0.802734375,-28.25927734375,234.06982421875,172.05810546875
20602.938982583,0.307373046875,0.5423583984375,-0.802734375,-28.25927734375,234.06982421875,172.05810546875
20602.939046625,0.307373046875,0.5423583984375,-0.522216796875,-28.25927734375,234.06982421875,172.05810546875
20602.93911225,0.307373046875,0.5423583984375,-0.522216796875,-28.25927734375,223.57177734375,172.05810546875
20602.939177,0.307373046875,0.5423583984375,-0.522216796875,-28.25927734375,223.57177734375,161.4990234375
20602.955809125,-0.0411376953125,0.5423583984375,-0.522216796875,-28.25927734375,223.57177734375,161.4990234375
20602.955954125,-0.0411376953125,0.4437255859375,-0.522216796875,-28.25927734375,223.57177734375,161.4990234375
20602.956019916,-0.0411376953125,0.4437255859375,-0.253173828125,-28.25927734375,223.57177734375,161.4990234375
20602.9720005,-0.0411376953125,0.4437255859375,-0.253173828125,-28.25927734375,195.37353515625,161.4990234375
20602.97207025,-0.0411376953125,0.4437255859375,-0.253173828125,-28.25927734375,195.37353515625,133.72802734375
20602.99676375,-0.178955078125,0.4437255859375,-0.253173828125,-28.25927734375,195.37353515625,133.72802734375
20602.996907958,-0.178955078125,0.3577880859375,-0.253173828125,-28.25927734375,195.37353515625,133.72802734375
20602.997385875,-0.178955078125,0.3577880859375,-0.226318359375,-28.25927734375,195.37353515625,133.72802734375
20603.005403791,-0.178955078125,0.3577880859375,-0.226318359375,-24.7802734375,195.37353515625,133.72802734375
20603.012384416,-0.3133544921875,0.3577880859375,-0.226318359375,-24.7802734375,195.37353515625,133.72802734375
20603.012586,-0.3133544921875,0.402587890625,-0.226318359375,-24.7802734375,195.37353515625,133.72802734375
20603.01268875,-0.3133544921875,0.402587890625,-0.0177001953125,-24.7802734375,195.37353515625,133.72802734375
20603.027375833,-0.3133544921875,0.402587890625,-0.0177001953125,-24.7802734375,153.01513671875,133.72802734375
20603.027552458,-0.3133544921875,0.402587890625,-0.0177001953125,-24.7802734375,153.01513671875,95.5810546875
20603.042160458,-0.4521484375,0.402587890625,-0.0177001953125,-24.7802734375,153.01513671875,95.5810546875
20603.042363666,-0.4521484375,0.3076171875,-0.0177001953125,-24.7802734375,153.01513671875,95.5810546875
20603.042429916,-0.4521484375,0.3076171875,0.14306640625,-24.7802734375,153.01513671875,95.5810546875
20603.05706475,-0.4521484375,0.3076171875,0.14306640625,-24.7802734375,116.455078125,95.5810546875
20603.0572165,-0.4521484375,0.3076171875,0.14306640625,-24.7802734375,116.455078125,75.13427734375
20603.102488375,-0.538818359375,0.3076171875,0.14306640625,-24.7802734375,116.455078125,75.13427734375
20603.104548625,-0.538818359375,0.243408203125,0.14306640625,-24.7802734375,116.455078125,75.13427734375
20603.104754708,-0.538818359375,0.243408203125,0.1787109375,-24.7802734375,116.455078125,75.13427734375
20603.108563791,-0.538818359375,0.243408203125,0.1787109375,-24.7802734375,83.43505859375,75.13427734375
20603.138930333,-0.58935546875,0.243408203125,0.1787109375,-24.7802734375,83.43505859375,75.13427734375
20603.139004083,-0.58935546875,0.1881103515625,0.1787109375,-24.7802734375,83.43505859375,75.13427734375
20603.139065541,-0.58935546875,0.1881103515625,0.23779296875,-24.7802734375,83.43505859375,75.13427734375
20603.147303291,-0.58935546875,0.1881103515625,0.23779296875,-24.7802734375,32.3486328125,75.13427734375
20603.147447625,-0.58935546875,0.1881103515625,0.23779296875,-24.7802734375,32.3486328125,26.611328125
20603.162501416,-0.5604248046875,0.1881103515625,0.23779296875,-24.7802734375,32.3486328125,26.611328125
20603.162678,-0.5604248046875,0.220947265625,0.23779296875,-24.7802734375,32.3486328125,26.611328125
20603.162741875,-0.5604248046875,0.220947265625,0.1982421875,-24.7802734375,32.3486328125,26.611328125
20603.177198875,-0.5604248046875,0.220947265625,0.1982421875,-24.7802734375,-58.53271484375,26.611328125
20603.17733675,-0.5604248046875,0.220947265625,0.1982421875,-24.7802734375,-58.53271484375,-22.5830078125
20603.192445166,-0.5067138671875,0.220947265625,0.1982421875,-24.7802734375,-58.53271484375,-22.5830078125
20603.192647791,-0.5067138671875,0.2301025390625,0.1982421875,-24.7802734375,-58.53271484375,-22.5830078125
20603.192747208,-0.5067138671875,0.2301025390625,0.0850830078125,-24.7802734375,-58.53271484375,-22.5830078125
20603.207203291,-0.5067138671875,0.2301025390625,0.0850830078125,-24.7802734375,-102.72216796875,-22.5830078125
20603.207357333,-0.5067138671875,0.2301025390625,0.0850830078125,-24.7802734375,-102.72216796875,-53.8330078125
20603.252161041,-0.4124755859375,0.2301025390625,0.0850830078125,-24.7802734375,-102.72216796875,-53.8330078125
20603.25232625,-0.4124755859375,0.299560546875,0.0850830078125,-24.7802734375,-102.72216796875,-53.8330078125
20603.252981375,-0.4124755859375,0.299560546875,-0.1031494140625,-24.7802734375,-102.72216796875,-53.8330078125
20603.253128791,-0.4124755859375,0.299560546875,-0.1031494140625,24.169921875,-102.72216796875,-53.8330078125
20603.272386583,-0.320556640625,0.299560546875,-0.1031494140625,24.169921875,-102.72216796875,-53.8330078125
20603.272459958,-0.320556640625,0.3642578125,-0.1031494140625,24.169921875,-102.72216796875,-53.8330078125
20603.272522833,-0.320556640625,0.3642578125,-0.3673095703125,24.169921875,-102.72216796875,-53.8330078125
20603.282170166,-0.320556640625,0.3642578125,-0.3673095703125,24.169921875,-154.052734375,-53.8330078125
20603.282330208,-0.320556640625,0.3642578125,-0.3673095703125,24.169921875,-154.052734375,-101.5625
20603.311133458,-0.143798828125,0.3642578125,-0.3673095703125,24.169921875,-154.052734375,-101.5625
20603.315015291,-0.143798828125,0.680908203125,-0.3673095703125,24.169921875,-154.052734375,-101.5625
20603.315083625,-0.143798828125,0.680908203125,-0.3878173828125,24.169921875,-154.052734375,-101.5625
20603.31514825,-0.143798828125,0.680908203125,-0.3878173828125,-34.97314453125,-154.052734375,-101.5625
20603.33903625,-0.09716796875,0.680908203125,-0.3878173828125,-34.97314453125,-154.052734375,-101.5625
20603.33910975,-0.09716796875,0.8236083984375,-0.3878173828125,-34.97314453125,-154.052734375,-101.5625
20603.33917325,-0.09716796875,0.8236083984375,-0.5201416015625,-34.97314453125,-154.052734375,-101.5625
20603.342103458,-0.09716796875,0.8236083984375,-0.5201416015625,-34.97314453125,-173.7060546875,-101.5625
20603.342252625,-0.09716796875,0.8236083984375,-0.5201416015625,-34.97314453125,-173.7060546875,-106.0791015625
20603.371907,-0.0440673828125,0.8236083984375,-0.5201416015625,-34.97314453125,-173.7060546875,-106.0791015625
20603.372075875,-0.0440673828125,0.7626953125,-0.5201416015625,-34.97314453125,-173.7060546875,-106.0791015625
20603.373028083,-0.0440673828125,0.7626953125,-0.758544921875,-34.97314453125,-173.7060546875,-106.0791015625
20603.373156958,-0.0440673828125,0.7626953125,-0.758544921875,-34.97314453125,-174.31640625,-106.0791015625
20603.402521958,0.1522216796875,0.7626953125,-0.758544921875,-34.97314453125,-174.31640625,-106.0791015625
20603.417332041,0.1522216796875,0.5810546875,-0.758544921875,-34.97314453125,-174.31640625,-106.0791015625
20603.417540833,0.1522216796875,0.5810546875,-0.702880859375,-34.97314453125,-174.31640625,-106.0791015625
20603.417616625,0.1522216796875,0.5810546875,-0.702880859375,-34.97314453125,-167.78564453125,-106.0791015625
20603.432542833,0.1522216796875,0.5810546875,-0.702880859375,-34.97314453125,-167.78564453125,-118.34716796875
20603.43272125,0.244384765625,0.5810546875,-0.702880859375,-34.97314453125,-167.78564453125,-118.34716796875
20603.433383083,0.244384765625,0.984130859375,-0.702880859375,-34.97314453125,-167.78564453125,-118.34716796875
20603.433533416,0.244384765625,0.984130859375,-0.8265380859375,-34.97314453125,-167.78564453125,-118.34716796875
20603.455710625,0.244384765625,0.984130859375,-0.8265380859375,-34.97314453125,-156.8603515625,-118.34716796875
20603.455782666,0.244384765625,0.984130859375,-0.8265380859375,-34.97314453125,-156.8603515625,-123.35205078125
20603.476257208,0.3426513671875,0.984130859375,-0.8265380859375,-34.97314453125,-156.8603515625,-123.35205078125
20603.478059125,0.3426513671875,0.675537109375,-0.8265380859375,-34.97314453125,-156.8603515625,-123.35205078125
20603.478274625,0.3426513671875,0.675537109375,-0.5147705078125,-34.97314453125,-156.8603515625,-123.35205078125
20603.478376916,0.3426513671875,0.675537109375,-0.5147705078125,66.7724609375,-156.8603515625,-123.35205078125
20603.492455625,0.5418701171875,0.675537109375,-0.5147705078125,66.7724609375,-156.8603515625,-123.35205078125
20603.492582708,0.5418701171875,0.880126953125,-0.5147705078125,66.7724609375,-156.8603515625,-123.35205078125
20603.492718083,0.5418701171875,0.880126953125,-0.6544189453125,66.7724609375,-156.8603515625,-123.35205078125
20603.50712775,0.5418701171875,0.880126953125,-0.6544189453125,66.7724609375,-153.74755859375,-123.35205078125
20603.507276583,0.5418701171875,0.880126953125,-0.6544189453125,66.7724609375,-153.74755859375,-137.3291015625
20603.6127145,0.6832275390625,0.880126953125,-0.6544189453125,66.7724609375,-153.74755859375,-137.3291015625
20603.613579041,0.6832275390625,0.923583984375,-0.6544189453125,66.7724609375,-153.74755859375,-137.3291015625
20603.613927375,0.6832275390625,0.923583984375,-0.5455322265625,66.7724609375,-153.74755859375,-137.3291015625
20603.614092125,0.6832275390625,0.923583984375,-0.5455322265625,66.7724609375,-155.09033203125,-137.3291015625
20603.640269833,0.7913818359375,0.923583984375,-0.5455322265625,66.7724609375,-155.09033203125,-137.3291015625
20603.640376333,0.7913818359375,0.8299560546875,-0.5455322265625,66.7724609375,-155.09033203125,-137.3291015625
20603.640465166,0.7913818359375,0.8299560546875,-0.61572265625,66.7724609375,-155.09033203125,-137.3291015625
20603.656930708,0.7913818359375,0.8299560546875,-0.61572265625,66.7724609375,-155.09033203125,-137.3291015625
20603.657465333,0.7913818359375,0.8299560546875,-0.61572265625,66.7724609375,-155.09033203125,-120.2392578125
20603.718714541,1.0367431640625,0.8299560546875,-0.61572265625,66.7724609375,-155.09033203125,-120.2392578125
20603.724884541,1.0367431640625,0.75927734375,-0.61572265625,66.7724609375,-155.09033203125,-120.2392578125
20603.725024083,1.0367431640625,0.75927734375,-0.33544921875,66.7724609375,-155.09033203125,-120.2392578125
20603.725100333,1.0367431640625,0.75927734375,-0.33544921875,66.7724609375,-155.09033203125,-110.04638671875
20603.756124708,1.0367431640625,0.6265869140625,-0.33544921875,66.7724609375,-155.09033203125,-110.04638671875
20603.756215916,1.0367431640625,0.6265869140625,-0.2843017578125,66.7724609375,-155.09033203125,-110.04638671875
20603.756291958,1.0367431640625,0.6265869140625,-0.2843017578125,9.765625,-155.09033203125,-110.04638671875
20603.776238,1.0367431640625,0.6265869140625,-0.2843017578125,9.765625,-155.09033203125,-103.33251953125
20603.792253458,0.8814697265625,0.6265869140625,-0.2843017578125,9.765625,-155.09033203125,-103.33251953125
20603.792429916,0.8814697265625,0.5274658203125,-0.2843017578125,9.765625,-155.09033203125,-103.33251953125
20603.793665125,0.8814697265625,0.5274658203125,-0.2640380859375,9.765625,-155.09033203125,-103.33251953125
20603.821827208,0.8814697265625,0.5274658203125,-0.2640380859375,9.765625,-59.08203125,-103.33251953125
20603.821935958,0.8814697265625,0.5274658203125,-0.2640380859375,9.765625,-59.08203125,-41.19873046875
20603.839210916,0.8941650390625,0.5274658203125,-0.2640380859375,9.765625,-59.08203125,-41.19873046875
20603.856270333,0.8941650390625,0.620361328125,-0.2640380859375,9.765625,-59.08203125,-41.19873046875
20603.856357166,0.8941650390625,0.620361328125,-0.1822509765625,9.765625,-59.08203125,-41.19873046875
20603.882072,0.8760986328125,0.620361328125,-0.1822509765625,9.765625,-59.08203125,-41.19873046875
20603.882251958,0.8760986328125,0.5489501953125,-0.1822509765625,9.765625,-59.08203125,-41.19873046875
20603.889241458,0.8760986328125,0.5489501953125,-0.2132568359375,9.765625,-59.08203125,-41.19873046875
20603.88932425,0.8760986328125,0.5489501953125,-0.2132568359375,9.765625,-59.08203125,-22.76611328125
20603.911345875,0.85791015625,0.5489501953125,-0.2132568359375,9.765625,-59.08203125,-22.76611328125
20603.91291275,0.85791015625,0.5684814453125,-0.2132568359375,9.765625,-59.08203125,-22.76611328125
20603.913066333,0.85791015625,0.5684814453125,-0.15966796875,9.765625,-59.08203125,-22.76611328125
20603.942257291,0.85791015625,0.5684814453125,-0.15966796875,-31.67724609375,-59.08203125,-22.76611328125
20603.942433541,0.8580322265625,0.5684814453125,-0.15966796875,-31.67724609375,-59.08203125,-22.76611328125
20603.942969208,0.8580322265625,0.5716552734375,-0.15966796875,-31.67724609375,-59.08203125,-22.76611328125
20604.002833916,0.8580322265625,0.5716552734375,-0.172607421875,-31.67724609375,-59.08203125,-22.76611328125
20604.003115791,0.8580322265625,0.5716552734375,-0.172607421875,-31.67724609375,-17.51708984375,-22.76611328125
20604.003931958,0.8580322265625,0.5716552734375,-0.172607421875,-31.67724609375,-17.51708984375,-9.58251953125
20604.004194916,0.8623046875,0.5716552734375,-0.172607421875,-31.67724609375,-17.51708984375,-9.58251953125
20604.02336325,0.8623046875,0.5716552734375,-0.194091796875,-31.67724609375,-17.51708984375,-9.58251953125
20604.023466333,0.8623046875,0.5716552734375,-0.194091796875,-12.75634765625,-17.51708984375,-9.58251953125
20604.0235545,0.8623046875,0.5716552734375,-0.194091796875,-12.75634765625,-5.9814453125,-9.58251953125
20604.047241791,0.86962890625,0.5716552734375,-0.194091796875,-12.75634765625,-5.9814453125,-9.58251953125
20604.048655375,0.86962890625,0.5283203125,-0.194091796875,-12.75634765625,-5.9814453125,-9.58251953125
20604.048916125,0.86962890625,0.5283203125,-0.223388671875,-12.75634765625,-5.9814453125,-9.58251953125
20604.049053625,0.86962890625,0.5283203125,-0.223388671875,-19.71435546875,-5.9814453125,-9.58251953125
20604.062499625,0.8724365234375,0.5283203125,-0.223388671875,-19.71435546875,-5.9814453125,-9.58251953125
20604.062769458,0.8724365234375,0.5367431640625,-0.223388671875,-19.71435546875,-5.9814453125,-9.58251953125
20604.06286525,0.8724365234375,0.5367431640625,-0.2586669921875,-19.71435546875,-5.9814453125,-9.58251953125
20604.077132375,0.8724365234375,0.5367431640625,-0.2586669921875,-19.71435546875,23.8037109375,-9.58251953125
NEW_REP,,,,,,
20604.137648583,0.8724365234375,0.5367431640625,-0.2586669921875,-19.71435546875,23.8037109375,20.8740234375
20604.13802225,0.872802734375,0.5367431640625,-0.2586669921875,-19.71435546875,23.8037109375,20.8740234375
20604.138286375,0.872802734375,0.5496826171875,-0.2586669921875,-19.71435546875,23.8037109375,20.8740234375
20604.156492041,0.872802734375,0.5496826171875,-0.29296875,-19.71435546875,23.8037109375,20.8740234375
20604.156577666,0.872802734375,0.5496826171875,-0.29296875,-19.71435546875,41.32080078125,20.8740234375
20604.156650541,0.872802734375,0.5496826171875,-0.29296875,-19.71435546875,41.32080078125,30.94482421875
20604.182191041,0.9583740234375,0.5496826171875,-0.29296875,-19.71435546875,41.32080078125,30.94482421875
20604.182409625,0.9583740234375,0.65234375,-0.29296875,-19.71435546875,41.32080078125,30.94482421875
20604.183079125,0.9583740234375,0.65234375,-0.5389404296875,-19.71435546875,41.32080078125,30.94482421875
20604.189398916,0.9583740234375,0.65234375,-0.5389404296875,-25.81787109375,41.32080078125,30.94482421875
20604.197173458,1.0333251953125,0.65234375,-0.5389404296875,-25.81787109375,41.32080078125,30.94482421875
20604.197252458,1.0333251953125,0.6956787109375,-0.5389404296875,-25.81787109375,41.32080078125,30.94482421875
20604.197410458,1.0333251953125,0.6956787109375,-0.67431640625,-25.81787109375,41.32080078125,30.94482421875
20604.2424425,1.0333251953125,0.6956787109375,-0.67431640625,-25.81787109375,125.48828125,30.94482421875
20604.2427525,1.0333251953125,0.6956787109375,-0.67431640625,-25.81787109375,125.48828125,86.3037109375
20604.243070125,0.9912109375,0.6956787109375,-0.67431640625,-25.81787109375,125.48828125,86.3037109375
20604.272838125,0.9912109375,0.6956787109375,-0.8809814453125,-25.81787109375,125.48828125,86.3037109375
20604.27339225,0.9912109375,0.6956787109375,-0.8809814453125,-71.10595703125,125.48828125,86.3037109375
20604.273578791,0.9912109375,0.6956787109375,-0.8809814453125,-71.10595703125,161.0107421875,86.3037109375
20604.302294708,0.9228515625,0.6956787109375,-0.8809814453125,-71.10595703125,161.0107421875,86.3037109375
20604.302485041,0.9228515625,0.9517822265625,-0.8809814453125,-71.10595703125,161.0107421875,86.3037109375
20604.303212041,0.9228515625,0.9517822265625,-0.8629150390625,-71.10595703125,161.0107421875,86.3037109375
20604.332602291,0.9228515625,0.9517822265625,-0.8629150390625,-71.10595703125,215.087890625,86.3037109375
20604.332868958,0.9228515625,0.9517822265625,-0.8629150390625,-71.10595703125,215.087890625,112.48779296875
20604.332960666,0.81494140625,0.9517822265625,-0.8629150390625,-71.10595703125,215.087890625,112.48779296875
20604.356103,0.81494140625,0.9517822265625,-0.820556640625,-71.10595703125,215.087890625,112.48779296875
20604.356191708,0.81494140625,0.9517822265625,-0.820556640625,37.353515625,215.087890625,112.48779296875
20604.356267375,0.81494140625,0.9517822265625,-0.820556640625,37.353515625,237.79296875,112.48779296875
20604.362115583,0.7431640625,0.9517822265625,-0.820556640625,37.353515625,237.79296875,112.48779296875
20604.362380625,0.7431640625,0.7493896484375,-0.820556640625,37.353515625,237.79296875,112.48779296875
20604.36247625,0.7431640625,0.7493896484375,-0.830322265625,37.353515625,237.79296875,112.48779296875
20604.392280333,0.7431640625,0.7493896484375,-0.830322265625,37.353515625,239.31884765625,112.48779296875
20604.392491791,0.7431640625,0.7493896484375,-0.830322265625,37.353515625,239.31884765625,106.62841796875
20604.393066208,0.63671875,0.7493896484375,-0.830322265625,37.353515625,239.31884765625,106.62841796875
20604.393262458,0.63671875,0.770751953125,-0.830322265625,37.353515625,239.31884765625,106.62841796875
20604.407166708,0.63671875,0.770751953125,-0.830322265625,37.353515625,237.60986328125,106.62841796875
20604.407342916,0.63671875,0.770751953125,-0.830322265625,37.353515625,237.60986328125,110.41259765625
20604.422968083,0.522705078125,0.770751953125,-0.830322265625,37.353515625,237.60986328125,110.41259765625
20604.423051208,0.522705078125,0.68701171875,-0.830322265625,37.353515625,237.60986328125,110.41259765625
20604.423123625,0.522705078125,0.68701171875,-0.7135009765625,37.353515625,237.60986328125,110.41259765625
20604.439092416,0.522705078125,0.68701171875,-0.7135009765625,37.353515625,230.65185546875,110.41259765625
20604.439182875,0.522705078125,0.68701171875,-0.7135009765625,37.353515625,230.65185546875,115.234375
20604.456070708,0.3778076171875,0.68701171875,-0.7135009765625,37.353515625,230.65185546875,115.234375
20604.45615425,0.3778076171875,0.7176513671875,-0.7135009765625,37.353515625,230.65185546875,115.234375
20604.456226041,0.3778076171875,0.7176513671875,-0.6748046875,37.353515625,230.65185546875,115.234375
20604.472669375,0.3778076171875,0.7176513671875,-0.6748046875,37.353515625,222.59521484375,115.234375
20604.472752125,0.3778076171875,0.7176513671875,-0.6748046875,37.353515625,222.59521484375,115.72265625
20604.482267083,0.2547607421875,0.7176513671875,-0.6748046875,37.353515625,222.59521484375,115.72265625
20604.482505125,0.2547607421875,0.7811279296875,-0.6748046875,37.353515625,222.59521484375,115.72265625
20604.482620916,0.2547607421875,0.7811279296875,-0.619140625,37.353515625,222.59521484375,115.72265625
20604.497356833,0.2547607421875,0.7811279296875,-0.619140625,37.353515625,215.087890625,115.72265625
20604.497539125,0.2547607421875,0.7811279296875,-0.619140625,37.353515625,215.087890625,115.05126953125
20604.512351833,0.14990234375,0.7811279296875,-0.619140625,37.353515625,215.087890625,115.05126953125
20604.512563916,0.14990234375,0.7093505859375,-0.619140625,37.353515625,215.087890625,115.05126953125
20604.51263775,0.14990234375,0.7093505859375,-0.59033203125,37.353515625,215.087890625,115.05126953125
20604.542355,0.14990234375,0.7093505859375,-0.59033203125,37.353515625,206.84814453125,115.05126953125
20604.542528708,0.14990234375,0.7093505859375,-0.59033203125,37.353515625,206.84814453125,117.98095703125
20604.543025625,0.01904296875,0.7093505859375,-0.59033203125,37.353515625,206.84814453125,117.98095703125
20604.543165375,0.01904296875,0.72705078125,-0.59033203125,37.353515625,206.84814453125,117.98095703125
20604.557231291,0.01904296875,0.72705078125,-0.59033203125,37.353515625,203.369140625,117.98095703125
20604.557405291,0.01904296875,0.72705078125,-0.59033203125,37.353515625,203.369140625,119.5068359375
20604.602665708,-0.1221923828125,0.72705078125,-0.59033203125,37.353515625,203.369140625,119.5068359375
20604.602793458,-0.1221923828125,0.74951171875,-0.59033203125,37.353515625,203.369140625,119.5068359375
20604.603613708,-0.1221923828125,0.74951171875,-0.4351806640625,37.353515625,203.369140625,119.5068359375
20604.603810458,-0.1221923828125,0.74951171875,-0.4351806640625,-14.22119140625,203.369140625,119.5068359375
20604.622693916,-0.245361328125,0.74951171875,-0.4351806640625,-14.22119140625,203.369140625,119.5068359375
20604.622767833,-0.245361328125,0.801513671875,-0.4351806640625,-14.22119140625,203.369140625,119.5068359375
20604.622830208,-0.245361328125,0.801513671875,-0.5096435546875,-14.22119140625,203.369140625,119.5068359375
20604.632372125,-0.245361328125,0.801513671875,-0.5096435546875,-14.22119140625,193.66455078125,119.5068359375
20604.632576166,-0.245361328125,0.801513671875,-0.5096435546875,-14.22119140625,193.66455078125,126.15966796875
20604.662274708,-0.40283203125,0.801513671875,-0.5096435546875,-14.22119140625,193.66455078125,126.15966796875
20604.663613333,-0.40283203125,0.39990234375,-0.5096435546875,-14.22119140625,193.66455078125,126.15966796875
20604.663850291,-0.40283203125,0.39990234375,-0.1903076171875,-14.22119140625,193.66455078125,126.15966796875
20604.663969833,-0.40283203125,0.39990234375,-0.1903076171875,-2.3193359375,193.66455078125,126.15966796875
20604.689353875,-0.44287109375,0.39990234375,-0.1903076171875,-2.3193359375,193.66455078125,126.15966796875
20604.689424291,-0.44287109375,0.112548828125,-0.1903076171875,-2.3193359375,193.66455078125,126.15966796875
20604.689485,-0.44287109375,0.112548828125,0.1844482421875,-2.3193359375,193.66455078125,126.15966796875
20604.692110166,-0.44287109375,0.112548828125,0.1844482421875,-2.3193359375,161.19384765625,126.15966796875
20604.692254,-0.44287109375,0.112548828125,0.1844482421875,-2.3193359375,161.19384765625,112.6708984375
20604.707282041,-0.5250244140625,0.112548828125,0.1844482421875,-2.3193359375,161.19384765625,112.6708984375
20604.707477833,-0.5250244140625,-0.2373046875,0.1844482421875,-2.3193359375,161.19384765625,112.6708984375
20604.707541375,-0.5250244140625,-0.2373046875,0.581298828125,-2.3193359375,161.19384765625,112.6708984375
20604.7225555,-0.5250244140625,-0.2373046875,0.581298828125,-2.3193359375,121.39892578125,112.6708984375
20604.7226275,-0.5250244140625,-0.2373046875,0.581298828125,-2.3193359375,121.39892578125,83.92333984375
20604.739417541,-0.5667724609375,-0.2373046875,0.581298828125,-2.3193359375,121.39892578125,83.92333984375
20604.739501833,-0.5667724609375,0.0987548828125,0.581298828125,-2.3193359375,121.39892578125,83.92333984375
20604.7395745,-0.5667724609375,0.0987548828125,0.8699951171875,-2.3193359375,121.39892578125,83.92333984375
20604.755787166,-0.5667724609375,0.0987548828125,0.8699951171875,-2.3193359375,46.142578125,83.92333984375
20604.755873,-0.5667724609375,0.0987548828125,0.8699951171875,-2.3193359375,46.142578125,29.6630859375
20604.782326666,-0.648193359375,0.0987548828125,0.8699951171875,-2.3193359375,46.142578125,29.6630859375
20604.782499,-0.648193359375,-0.11767578125,0.8699951171875,-2.3193359375,46.142578125,29.6630859375
20604.789270125,-0.648193359375,-0.11767578125,0.6134033203125,-2.3193359375,46.142578125,29.6630859375
20604.789353166,-0.648193359375,-0.11767578125,0.6134033203125,61.4013671875,46.142578125,29.6630859375
20604.812251458,-0.6898193359375,-0.11767578125,0.6134033203125,61.4013671875,46.142578125,29.6630859375
20604.812359375,-0.6898193359375,0.0303955078125,0.6134033203125,61.4013671875,46.142578125,29.6630859375
20604.813015875,-0.6898193359375,0.0303955078125,0.4119873046875,61.4013671875,46.142578125,29.6630859375
20604.813169916,-0.6898193359375,0.0303955078125,0.4119873046875,57.7392578125,46.142578125,29.6630859375
20604.82725025,-0.69384765625,0.0303955078125,0.4119873046875,57.7392578125,46.142578125,29.6630859375
20604.827546375,-0.69384765625,0.146240234375,0.4119873046875,57.7392578125,46.142578125,29.6630859375
20604.827660458,-0.69384765625,0.146240234375,0.1739501953125,57.7392578125,46.142578125,29.6630859375
20604.842833166,-0.69384765625,0.146240234375,0.1739501953125,57.7392578125,-111.083984375,29.6630859375
20604.843010166,-0.69384765625,0.146240234375,0.1739501953125,57.7392578125,-111.083984375,-65.00244140625
20604.872246958,-0.647705078125,0.146240234375,0.1739501953125,57.7392578125,-111.083984375,-65.00244140625
20604.872417666,-0.647705078125,0.1063232421875,0.1739501953125,57.7392578125,-111.083984375,-65.00244140625
20604.873138458,-0.647705078125,0.1063232421875,0.0709228515625,57.7392578125,-111.083984375,-65.00244140625
20604.873286458,-0.647705078125,0.1063232421875,0.0709228515625,55.2978515625,-111.083984375,-65.00244140625
20604.902979125,-0.5533447265625,0.1063232421875,0.0709228515625,55.2978515625,-111.083984375,-65.00244140625
20604.917419541,-0.5533447265625,0.367919921875,0.0709228515625,55.2978515625,-111.083984375,-65.00244140625
20604.917522458,-0.5533447265625,0.367919921875,-0.12158203125,55.2978515625,-111.083984375,-65.00244140625
20604.918219083,-0.5533447265625,0.367919921875,-0.12158203125,55.2978515625,-150.87890625,-65.00244140625
20604.918342458,-0.5533447265625,0.367919921875,-0.12158203125,55.2978515625,-150.87890625,-109.2529296875
20604.947066291,-0.4317626953125,0.367919921875,-0.12158203125,55.2978515625,-150.87890625,-109.2529296875
20604.947140875,-0.4317626953125,0.480712890625,-0.12158203125,55.2978515625,-150.87890625,-109.2529296875
20604.947837333,-0.4317626953125,0.480712890625,-0.314697265625,55.2978515625,-150.87890625,-109.2529296875
20604.947913666,-0.4317626953125,0.480712890625,-0.314697265625,32.77587890625,-150.87890625,-109.2529296875
20604.962170708,-0.3408203125,0.480712890625,-0.314697265625,32.77587890625,-150.87890625,-109.2529296875
20604.962291041,-0.3408203125,0.601318359375,-0.314697265625,32.77587890625,-150.87890625,-109.2529296875
20604.962356958,-0.3408203125,0.601318359375,-0.4705810546875,32.77587890625,-150.87890625,-109.2529296875
20604.97692125,-0.3408203125,0.601318359375,-0.4705810546875,32.77587890625,-157.77587890625,-109.2529296875
20604.977028541,-0.3408203125,0.601318359375,-0.4705810546875,32.77587890625,-157.77587890625,-130.67626953125
20605.006985583,-0.232666015625,0.601318359375,-0.4705810546875,32.77587890625,-157.77587890625,-130.67626953125
20605.007093291,-0.232666015625,0.8380126953125,-0.4705810546875,32.77587890625,-157.77587890625,-130.67626953125
20605.007840666,-0.232666015625,0.8380126953125,-0.532470703125,32.77587890625,-157.77587890625,-130.67626953125
20605.007939916,-0.232666015625,0.8380126953125,-0.532470703125,3.84521484375,-157.77587890625,-130.67626953125
20605.022163916,-0.182861328125,0.8380126953125,-0.532470703125,3.84521484375,-157.77587890625,-130.67626953125
20605.022303291,-0.182861328125,0.7730712890625,-0.532470703125,3.84521484375,-157.77587890625,-130.67626953125
20605.022342291,-0.182861328125,0.7730712890625,-0.707275390625,3.84521484375,-157.77587890625,-130.67626953125
20605.051861666,-0.182861328125,0.7730712890625,-0.707275390625,3.84521484375,-153.6865234375,-130.67626953125
20605.051957625,-0.182861328125,0.7730712890625,-0.707275390625,3.84521484375,-153.6865234375,-119.32373046875
20605.052757291,-0.0357666015625,0.7730712890625,-0.707275390625,3.84521484375,-153.6865234375,-119.32373046875
20605.071164625,-0.0357666015625,0.7730712890625,-0.5587158203125,3.84521484375,-153.6865234375,-119.32373046875
20605.071208958,-0.0357666015625,0.7730712890625,-0.5587158203125,20.56884765625,-153.6865234375,-119.32373046875
20605.071245875,-0.0357666015625,0.7730712890625,-0.5587158203125,20.56884765625,-153.13720703125,-119.32373046875
20605.111854416,0.104736328125,0.7730712890625,-0.5587158203125,20.56884765625,-153.13720703125,-119.32373046875
20605.111966208,0.104736328125,0.8673095703125,-0.5587158203125,20.56884765625,-153.13720703125,-119.32373046875
20605.113185166,0.104736328125,0.8673095703125,-0.5596923828125,20.56884765625,-153.13720703125,-119.32373046875
20605.113278208,0.104736328125,0.8673095703125,-0.5596923828125,10.68115234375,-153.13720703125,-119.32373046875
20605.137813125,0.2384033203125,0.8673095703125,-0.5596923828125,10.68115234375,-153.13720703125,-119.32373046875
20605.137861416,0.2384033203125,0.8485107421875,-0.5596923828125,10.68115234375,-153.13720703125,-119.32373046875
20605.137901958,0.2384033203125,0.8485107421875,-0.7552490234375,10.68115234375,-153.13720703125,-119.32373046875
20605.142063458,0.2384033203125,0.8485107421875,-0.7552490234375,10.68115234375,-157.958984375,-119.32373046875
20605.142136625,0.2384033203125,0.8485107421875,-0.7552490234375,10.68115234375,-157.958984375,-111.572265625
20605.1570535,0.3779296875,0.8485107421875,-0.7552490234375,10.68115234375,-157.958984375,-111.572265625
20605.1571775,0.3779296875,0.957763671875,-0.7552490234375,10.68115234375,-157.958984375,-111.572265625
20605.15724325,0.3779296875,0.957763671875,-0.55419921875,10.68115234375,-157.958984375,-111.572265625
20605.171943125,0.3779296875,0.957763671875,-0.55419921875,10.68115234375,-164.12353515625,-111.572265625
20605.172046375,0.3779296875,0.957763671875,-0.55419921875,10.68115234375,-164.12353515625,-110.4736328125
20605.217329333,0.473388671875,0.957763671875,-0.55419921875,10.68115234375,-164.12353515625,-110.4736328125
20605.217440625,0.473388671875,0.7840576171875,-0.55419921875,10.68115234375,-164.12353515625,-110.4736328125
20605.218716458,0.473388671875,0.7840576171875,-0.7266845703125,10.68115234375,-164.12353515625,-110.4736328125
20605.27747,0.473388671875,0.7840576171875,-0.7266845703125,10.68115234375,-152.64892578125,-110.4736328125
20605.28834825,0.473388671875,0.7840576171875,-0.7266845703125,10.68115234375,-152.64892578125,-104.248046875
20605.288578791,0.578857421875,0.7840576171875,-0.7266845703125,10.68115234375,-152.64892578125,-104.248046875
20605.288636958,0.578857421875,0.91015625,-0.7266845703125,10.68115234375,-152.64892578125,-104.248046875
20605.306982916,0.578857421875,0.91015625,-0.7266845703125,10.68115234375,-131.4697265625,-104.248046875
20605.307157958,0.578857421875,0.91015625,-0.7266845703125,10.68115234375,-131.4697265625,-97.83935546875
20605.307231833,0.7294921875,0.91015625,-0.7266845703125,10.68115234375,-131.4697265625,-97.83935546875
20605.322169833,0.7294921875,0.91015625,-0.6107177734375,10.68115234375,-131.4697265625,-97.83935546875
20605.322328625,0.7294921875,0.91015625,-0.6107177734375,-0.244140625,-131.4697265625,-97.83935546875
20605.322418708,0.7294921875,0.91015625,-0.6107177734375,-0.244140625,-114.56298828125,-97.83935546875
20605.367291541,0.7083740234375,0.91015625,-0.6107177734375,-0.244140625,-114.56298828125,-97.83935546875
20605.36860175,0.7083740234375,0.7686767578125,-0.6107177734375,-0.244140625,-114.56298828125,-97.83935546875
20605.368839708,0.7083740234375,0.7686767578125,-0.4476318359375,-0.244140625,-114.56298828125,-97.83935546875
20605.368958708,0.7083740234375,0.7686767578125,-0.4476318359375,5.2490234375,-114.56298828125,-97.83935546875
20605.388534958,0.7490234375,0.7686767578125,-0.4476318359375,5.2490234375,-114.56298828125,-97.83935546875
20605.397424083,0.7490234375,0.7275390625,-0.4476318359375,5.2490234375,-114.56298828125,-97.83935546875
20605.412324208,0.7490234375,0.7275390625,-0.4161376953125,5.2490234375,-114.56298828125,-97.83935546875
20605.42747175,0.7490234375,0.7275390625,-0.4161376953125,5.2490234375,-104.30908203125,-97.83935546875
20605.427684166,0.7490234375,0.7275390625,-0.4161376953125,5.2490234375,-104.30908203125,-87.21923828125
20605.427768708,0.826171875,0.7275390625,-0.4161376953125,5.2490234375,-104.30908203125,-87.21923828125
20605.428240833,0.826171875,0.7275390625,-0.4161376953125,5.2490234375,-102.35595703125,-87.21923828125
20605.487293541,0.9034423828125,0.7275390625,-0.4161376953125,5.2490234375,-102.35595703125,-87.21923828125
20605.487544791,0.9034423828125,0.596435546875,-0.4161376953125,5.2490234375,-102.35595703125,-87.21923828125
20605.488056166,0.9034423828125,0.596435546875,-0.311767578125,5.2490234375,-102.35595703125,-87.21923828125
20605.502243041,0.9034423828125,0.596435546875,-0.311767578125,11.3525390625,-102.35595703125,-87.21923828125
20605.502453541,0.9202880859375,0.596435546875,-0.311767578125,11.3525390625,-102.35595703125,-87.21923828125
20605.578332958,0.9202880859375,0.6036376953125,-0.311767578125,11.3525390625,-102.35595703125,-87.21923828125
20605.578650916,0.9202880859375,0.6036376953125,-0.283203125,11.3525390625,-102.35595703125,-87.21923828125
20605.584997166,0.9202880859375,0.6036376953125,-0.283203125,11.3525390625,-96.13037109375,-87.21923828125
20605.667648833,0.9202880859375,0.6036376953125,-0.283203125,11.3525390625,-96.13037109375,-83.55712890625
20605.668336541,0.9202880859375,0.6036376953125,-0.23876953125,11.3525390625,-96.13037109375,-83.55712890625
20605.668547125,0.9202880859375,0.6036376953125,-0.23876953125,2.197265625,-96.13037109375,-83.55712890625
20605.669106333,0.9202880859375,0.6036376953125,-0.23876953125,2.197265625,-96.13037109375,-60.11962890625
20605.697582583,0.9202880859375,0.5135498046875,-0.23876953125,2.197265625,-96.13037109375,-60.11962890625
20605.697807666,0.9202880859375,0.5135498046875,-0.129638671875,2.197265625,-96.13037109375,-60.11962890625
20605.698113458,0.9202880859375,0.5135498046875,-0.129638671875,-7.38525390625,-96.13037109375,-60.11962890625
20605.6983435,0.9202880859375,0.5135498046875,-0.129638671875,-7.38525390625,-96.13037109375,-23.13232421875
20605.727333791,0.8798828125,0.5135498046875,-0.129638671875,-7.38525390625,-96.13037109375,-23.13232421875
20605.727517,0.8798828125,0.431640625,-0.129638671875,-7.38525390625,-96.13037109375,-23.13232421875
20605.728115416,0.8798828125,0.431640625,-0.0703125,-7.38525390625,-96.13037109375,-23.13232421875
20605.728265958,0.8798828125,0.431640625,-0.0703125,-7.38525390625,-26.7333984375,-23.13232421875
20605.772748875,0.91015625,0.431640625,-0.0703125,-7.38525390625,-26.7333984375,-23.13232421875
20605.772970125,0.91015625,0.4420166015625,-0.0703125,-7.38525390625,-26.7333984375,-23.13232421875
20605.773494833,0.91015625,0.4420166015625,-0.094970703125,-7.38525390625,-26.7333984375,-23.13232421875
20605.773682,0.91015625,0.4420166015625,-0.094970703125,-14.0380859375,-26.7333984375,-23.13232421875
20605.817254625,0.9112548828125,0.4420166015625,-0.094970703125,-14.0380859375,-26.7333984375,-23.13232421875
20605.8174825,0.9112548828125,0.4261474609375,-0.094970703125,-14.0380859375,-26.7333984375,-23.13232421875
20605.878986833,0.9112548828125,0.4261474609375,-0.0714111328125,-14.0380859375,-26.7333984375,-23.13232421875
20605.879725041,0.9112548828125,0.4261474609375,-0.0714111328125,-14.0380859375,-18.1884765625,-23.13232421875
20605.879890583,0.8916015625,0.4261474609375,-0.0714111328125,-14.0380859375,-18.1884765625,-23.13232421875
20605.880108666,0.8916015625,0.478759765625,-0.0714111328125,-14.0380859375,-18.1884765625,-23.13232421875
NEW_REP,,,,,,
20605.906993416,0.8916015625,0.478759765625,-0.0714111328125,-14.0380859375,-4.5166015625,-23.13232421875
20605.907188541,0.8916015625,0.478759765625,-0.0714111328125,-14.0380859375,-4.5166015625,0.91552734375
20605.936184791,0.8798828125,0.478759765625,-0.0714111328125,-14.0380859375,-4.5166015625,0.91552734375
20605.952423458,0.8798828125,0.478759765625,-0.2227783203125,-14.0380859375,-4.5166015625,0.91552734375
20605.9525925,0.8798828125,0.478759765625,-0.2227783203125,-13.7939453125,-4.5166015625,0.91552734375
20605.972575208,0.8798828125,0.478759765625,-0.2227783203125,-13.7939453125,21.91162109375,0.91552734375
20605.972645916,0.884033203125,0.478759765625,-0.2227783203125,-13.7939453125,21.91162109375,0.91552734375
20605.972707958,0.884033203125,0.478759765625,-0.2821044921875,-13.7939453125,21.91162109375,0.91552734375
20605.97276675,0.884033203125,0.478759765625,-0.2821044921875,-39.9169921875,21.91162109375,0.91552734375
20605.982124833,0.884033203125,0.478759765625,-0.2821044921875,-39.9169921875,21.91162109375,41.56494140625
20606.027383666,0.9033203125,0.478759765625,-0.2821044921875,-39.9169921875,21.91162109375,41.56494140625
20606.027627375,0.9033203125,0.650390625,-0.2821044921875,-39.9169921875,21.91162109375,41.56494140625
20606.028154583,0.9033203125,0.650390625,-0.3916015625,-39.9169921875,21.91162109375,41.56494140625
20606.028355791,0.9033203125,0.650390625,-0.3916015625,-39.24560546875,21.91162109375,41.56494140625
20606.04245325,0.9244384765625,0.650390625,-0.3916015625,-39.24560546875,21.91162109375,41.56494140625
20606.042726666,0.9244384765625,0.6688232421875,-0.3916015625,-39.24560546875,21.91162109375,41.56494140625
20606.042869541,0.9244384765625,0.6688232421875,-0.4423828125,-39.24560546875,21.91162109375,41.56494140625
20606.071286166,0.9244384765625,0.6688232421875,-0.4423828125,-39.24560546875,96.86279296875,41.56494140625
20606.102426708,0.9244384765625,0.6688232421875,-0.4423828125,-39.24560546875,96.86279296875,71.71630859375
20606.10264025,0.9444580078125,0.6688232421875,-0.4423828125,-39.24560546875,96.86279296875,71.71630859375
20606.103092,0.9444580078125,0.7335205078125,-0.4423828125,-39.24560546875,96.86279296875,71.71630859375
20606.1033045,0.9444580078125,0.7335205078125,-0.545166015625,-39.24560546875,96.86279296875,71.71630859375
20606.123223958,0.950927734375,0.7335205078125,-0.545166015625,-39.24560546875,96.86279296875,71.71630859375
20606.123321166,0.950927734375,0.74365234375,-0.545166015625,-39.24560546875,96.86279296875,71.71630859375
20606.12341075,0.950927734375,0.74365234375,-0.5579833984375,-39.24560546875,96.86279296875,71.71630859375
20606.147151791,0.950927734375,0.74365234375,-0.5579833984375,-39.24560546875,148.4375,71.71630859375
20606.148519291,0.950927734375,0.74365234375,-0.5579833984375,-39.24560546875,148.4375,96.61865234375
20606.148694,0.928955078125,0.74365234375,-0.5579833984375,-39.24560546875,148.4375,96.61865234375
20606.208488166,0.928955078125,0.74365234375,-0.7230224609375,-39.24560546875,148.4375,96.61865234375
20606.209020625,0.928955078125,0.74365234375,-0.7230224609375,-39.61181640625,148.4375,96.61865234375
20606.209211625,0.928955078125,0.74365234375,-0.7230224609375,-39.61181640625,172.119140625,96.61865234375
20606.223697666,0.9005126953125,0.74365234375,-0.7230224609375,-39.61181640625,172.119140625,96.61865234375
20606.252295958,0.9005126953125,0.8531494140625,-0.7230224609375,-39.61181640625,172.119140625,96.61865234375
20606.252524583,0.9005126953125,0.8531494140625,-0.7470703125,-39.61181640625,172.119140625,96.61865234375
20606.25318125,0.9005126953125,0.8531494140625,-0.7470703125,-39.61181640625,184.2041015625,96.61865234375
20606.253385833,0.9005126953125,0.8531494140625,-0.7470703125,-39.61181640625,184.2041015625,105.46875
20606.2737735,0.9005126953125,0.8531494140625,-0.770751953125,-39.61181640625,184.2041015625,105.46875
20606.273913958,0.9005126953125,0.8531494140625,-0.770751953125,7.6904296875,184.2041015625,105.46875
20606.274007166,0.9005126953125,0.8531494140625,-0.770751953125,7.6904296875,195.9228515625,105.46875
20606.282183791,0.576416015625,0.8531494140625,-0.770751953125,7.6904296875,195.9228515625,105.46875
20606.282454458,0.576416015625,0.7989501953125,-0.770751953125,7.6904296875,195.9228515625,105.46875
20606.282605458,0.576416015625,0.7989501953125,-0.740234375,7.6904296875,195.9228515625,105.46875
20606.297327083,0.576416015625,0.7989501953125,-0.740234375,7.6904296875,196.2890625,105.46875
20606.297481916,0.576416015625,0.7989501953125,-0.740234375,7.6904296875,196.2890625,120.05615234375
20606.327277708,0.4119873046875,0.7989501953125,-0.740234375,7.6904296875,196.2890625,120.05615234375
20606.331103375,0.4119873046875,0.744140625,-0.740234375,7.6904296875,196.2890625,120.05615234375
20606.331367375,0.4119873046875,0.744140625,-0.6732177734375,7.6904296875,196.2890625,120.05615234375
20606.331442041,0.4119873046875,0.744140625,-0.6732177734375,7.6904296875,193.603515625,120.05615234375
20606.3573875,0.28857421875,0.744140625,-0.6732177734375,7.6904296875,193.603515625,120.05615234375
20606.361967666,0.28857421875,0.671142578125,-0.6732177734375,7.6904296875,193.603515625,120.05615234375
20606.36225625,0.28857421875,0.671142578125,-0.653076171875,7.6904296875,193.603515625,120.05615234375
20606.362348416,0.28857421875,0.671142578125,-0.653076171875,-3.90625,193.603515625,120.05615234375
20606.402478666,0.1964111328125,0.671142578125,-0.653076171875,-3.90625,193.603515625,120.05615234375
20606.402711541,0.1964111328125,0.712158203125,-0.653076171875,-3.90625,193.603515625,120.05615234375
20606.403233,0.1964111328125,0.712158203125,-0.6019287109375,-3.90625,193.603515625,120.05615234375
20606.403485583,0.1964111328125,0.712158203125,-0.6019287109375,-9.33837890625,193.603515625,120.05615234375
20606.422874833,0.0587158203125,0.712158203125,-0.6019287109375,-9.33837890625,193.603515625,120.05615234375
20606.422985,0.0587158203125,0.6978759765625,-0.6019287109375,-9.33837890625,193.603515625,120.05615234375
20606.423059916,0.0587158203125,0.6978759765625,-0.603759765625,-9.33837890625,193.603515625,120.05615234375
20606.432259,0.0587158203125,0.6978759765625,-0.603759765625,-9.33837890625,186.279296875,120.05615234375
20606.432439125,0.0587158203125,0.6978759765625,-0.603759765625,-9.33837890625,186.279296875,109.19189453125
20606.4787075,-0.1181640625,0.6978759765625,-0.603759765625,-9.33837890625,186.279296875,109.19189453125
20606.478939333,-0.1181640625,0.5963134765625,-0.603759765625,-9.33837890625,186.279296875,109.19189453125
20606.480055916,-0.1181640625,0.5963134765625,-0.4708251953125,-9.33837890625,186.279296875,109.19189453125
20606.507558916,-0.1181640625,0.5963134765625,-0.4708251953125,8.9111328125,186.279296875,109.19189453125
20606.507818666,-0.259521484375,0.5963134765625,-0.4708251953125,8.9111328125,186.279296875,109.19189453125
20606.507913625,-0.259521484375,0.6168212890625,-0.4708251953125,8.9111328125,186.279296875,109.19189453125
20606.523375125,-0.259521484375,0.6168212890625,-0.4708251953125,-12.51220703125,186.279296875,109.19189453125
20606.523464541,-0.259521484375,0.6168212890625,-0.4708251953125,-12.51220703125,171.142578125,109.19189453125
20606.523538458,-0.259521484375,0.6168212890625,-0.4708251953125,-12.51220703125,171.142578125,105.95703125
20606.552286208,-0.52587890625,0.6168212890625,-0.4708251953125,-12.51220703125,171.142578125,105.95703125
20606.552439708,-0.52587890625,0.2540283203125,-0.4708251953125,-12.51220703125,171.142578125,105.95703125
20606.553237,-0.52587890625,0.2540283203125,0.02880859375,-12.51220703125,171.142578125,105.95703125
20606.553426041,-0.52587890625,0.2540283203125,0.02880859375,-8.1787109375,171.142578125,105.95703125
20606.573503541,-0.57080078125,0.2540283203125,0.02880859375,-8.1787109375,171.142578125,105.95703125
20606.573602666,-0.57080078125,0.1138916015625,0.02880859375,-8.1787109375,171.142578125,105.95703125
20606.573688666,-0.57080078125,0.1138916015625,0.226806640625,-8.1787109375,171.142578125,105.95703125
20606.582482708,-0.57080078125,0.1138916015625,0.226806640625,-8.1787109375,107.97119140625,105.95703125
20606.582712958,-0.57080078125,0.1138916015625,0.226806640625,-8.1787109375,107.97119140625,72.021484375
20606.597798708,-0.5999755859375,0.1138916015625,0.226806640625,-8.1787109375,107.97119140625,72.021484375
20606.598054333,-0.5999755859375,0.060546875,0.226806640625,-8.1787109375,107.97119140625,72.021484375
20606.598188416,-0.5999755859375,0.060546875,0.3931884765625,-8.1787109375,107.97119140625,72.021484375
20606.612564916,-0.5999755859375,0.060546875,0.3931884765625,-8.1787109375,55.0537109375,72.021484375
20606.612776458,-0.5999755859375,0.060546875,0.3931884765625,-8.1787109375,55.0537109375,40.95458984375
20606.627675708,-0.6446533203125,0.060546875,0.3931884765625,-8.1787109375,55.0537109375,40.95458984375
20606.627796583,-0.6446533203125,0.094970703125,0.3931884765625,-8.1787109375,55.0537109375,40.95458984375
20606.62867475,-0.6446533203125,0.094970703125,0.3876953125,-8.1787109375,55.0537109375,40.95458984375
20606.642444916,-0.6446533203125,0.094970703125,0.3876953125,-8.1787109375,9.94873046875,40.95458984375
20606.642642041,-0.6446533203125,0.094970703125,0.3876953125,-8.1787109375,9.94873046875,17.39501953125
20606.657617541,-0.693603515625,0.094970703125,0.3876953125,-8.1787109375,9.94873046875,17.39501953125
20606.657860958,-0.693603515625,0.0650634765625,0.3876953125,-8.1787109375,9.94873046875,17.39501953125
20606.657948208,-0.693603515625,0.0650634765625,0.2703857421875,-8.1787109375,9.94873046875,17.39501953125
20606.673095541,-0.693603515625,0.0650634765625,0.2703857421875,-8.1787109375,-48.03466796875,17.39501953125
20606.673200541,-0.693603515625,0.0650634765625,0.2703857421875,-8.1787109375,-48.03466796875,-13.916015625
20606.690158625,-0.67578125,0.0650634765625,0.2703857421875,-8.1787109375,-48.03466796875,-13.916015625
20606.690259041,-0.67578125,0.1361083984375,0.2703857421875,-8.1787109375,-48.03466796875,-13.916015625
20606.69034675,-0.67578125,0.1361083984375,0.124755859375,-8.1787109375,-48.03466796875,-13.916015625
20606.706784291,-0.67578125,0.1361083984375,0.124755859375,-8.1787109375,-82.03125,-13.916015625
20606.706888875,-0.67578125,0.1361083984375,0.124755859375,-8.1787109375,-82.03125,-38.26904296875
20606.7174805,-0.6458740234375,0.1361083984375,0.124755859375,-8.1787109375,-82.03125,-38.26904296875
20606.723187625,-0.6458740234375,0.213134765625,0.124755859375,-8.1787109375,-82.03125,-38.26904296875
20606.723335,-0.6458740234375,0.213134765625,-0.0628662109375,-8.1787109375,-82.03125,-38.26904296875
20606.747331208,-0.6458740234375,0.213134765625,-0.0628662109375,-8.1787109375,-112.73193359375,-38.26904296875
20606.747534458,-0.6458740234375,0.213134765625,-0.0628662109375,-8.1787109375,-112.73193359375,-64.51416015625
20606.748152958,-0.57666015625,0.213134765625,-0.0628662109375,-8.1787109375,-112.73193359375,-64.51416015625
20606.74833875,-0.57666015625,0.2972412109375,-0.0628662109375,-8.1787109375,-112.73193359375,-64.51416015625
20606.77801125,-0.57666015625,0.2972412109375,-0.0628662109375,-8.1787109375,-129.08935546875,-64.51416015625
20606.778227333,-0.57666015625,0.2972412109375,-0.0628662109375,-8.1787109375,-129.08935546875,-85.14404296875
20606.807686416,-0.4298095703125,0.2972412109375,-0.0628662109375,-8.1787109375,-129.08935546875,-85.14404296875
20606.807907833,-0.4298095703125,0.482421875,-0.0628662109375,-8.1787109375,-129.08935546875,-85.14404296875
20606.808399666,-0.4298095703125,0.482421875,-0.4583740234375,-8.1787109375,-129.08935546875,-85.14404296875
20606.822216875,-0.4298095703125,0.482421875,-0.4583740234375,-8.1787109375,-129.08935546875,-99.67041015625
20606.839711916,-0.27880859375,0.482421875,-0.4583740234375,-8.1787109375,-129.08935546875,-99.67041015625
20606.839801958,-0.27880859375,0.730224609375,-0.4583740234375,-8.1787109375,-129.08935546875,-99.67041015625
20606.839882875,-0.27880859375,0.730224609375,-0.5887451171875,-8.1787109375,-129.08935546875,-99.67041015625
20606.856263958,-0.27880859375,0.730224609375,-0.5887451171875,-8.1787109375,-140.56396484375,-99.67041015625
20606.8563455,-0.27880859375,0.730224609375,-0.5887451171875,-8.1787109375,-140.56396484375,-99.12109375
20606.867248958,-0.1998291015625,0.730224609375,-0.5887451171875,-8.1787109375,-140.56396484375,-99.12109375
20606.87269025,-0.1998291015625,0.7275390625,-0.5887451171875,-8.1787109375,-140.56396484375,-99.12109375
20606.872776166,-0.1998291015625,0.7275390625,-0.7379150390625,-8.1787109375,-140.56396484375,-99.12109375
20606.882274958,-0.1998291015625,0.7275390625,-0.7379150390625,-8.1787109375,-139.892578125,-99.12109375
20606.882466083,-0.1998291015625,0.7275390625,-0.7379150390625,-8.1787109375,-139.892578125,-94.970703125
20606.897488083,-0.1102294921875,0.7275390625,-0.7379150390625,-8.1787109375,-139.892578125,-94.970703125
20606.897708375,-0.1102294921875,0.6641845703125,-0.7379150390625,-8.1787109375,-139.892578125,-94.970703125
20606.897905833,-0.1102294921875,0.6641845703125,-0.675048828125,-8.1787109375,-139.892578125,-94.970703125
20606.912169875,-0.1102294921875,0.6641845703125,-0.675048828125,-8.1787109375,-135.07080078125,-94.970703125
20606.927591583,-0.1102294921875,0.6641845703125,-0.675048828125,-8.1787109375,-135.07080078125,-96.5576171875
20606.927767458,0.0040283203125,0.6641845703125,-0.675048828125,-8.1787109375,-135.07080078125,-96.5576171875
20606.929065958,0.0040283203125,0.7615966796875,-0.675048828125,-8.1787109375,-135.07080078125,-96.5576171875
20606.929242,0.0040283203125,0.7615966796875,-0.655029296875,-8.1787109375,-135.07080078125,-96.5576171875
20606.942367,0.0040283203125,0.7615966796875,-0.655029296875,-8.1787109375,-135.31494140625,-96.5576171875
20606.942543583,0.0040283203125,0.7615966796875,-0.655029296875,-8.1787109375,-135.31494140625,-100.64697265625
20606.957425083,0.14501953125,0.7615966796875,-0.655029296875,-8.1787109375,-135.31494140625,-100.64697265625
20606.957607458,0.14501953125,0.8089599609375,-0.655029296875,-8.1787109375,-135.31494140625,-100.64697265625
20606.958698083,0.14501953125,0.8089599609375,-0.6541748046875,-8.1787109375,-135.31494140625,-100.64697265625
20606.987335333,0.14501953125,0.8089599609375,-0.6541748046875,-8.1787109375,-133.23974609375,-100.64697265625
20606.987548375,0.14501953125,0.8089599609375,-0.6541748046875,-8.1787109375,-133.23974609375,-100.341796875
20606.988129166,0.179931640625,0.8089599609375,-0.6541748046875,-8.1787109375,-133.23974609375,-100.341796875
20606.9883305,0.179931640625,0.7723388671875,-0.6541748046875,-8.1787109375,-133.23974609375,-100.341796875
20607.006074416,0.179931640625,0.7723388671875,-0.6541748046875,-8.1787109375,-131.89697265625,-100.341796875
20607.006159166,0.179931640625,0.7723388671875,-0.6541748046875,-8.1787109375,-131.89697265625,-101.86767578125
20607.032782041,0.2779541015625,0.7723388671875,-0.6541748046875,-8.1787109375,-131.89697265625,-101.86767578125
20607.032958291,0.2779541015625,0.8363037109375,-0.6541748046875,-8.1787109375,-131.89697265625,-101.86767578125
20607.039326083,0.2779541015625,0.8363037109375,-0.68896484375,-8.1787109375,-131.89697265625,-101.86767578125
20607.03941625,0.2779541015625,0.8363037109375,-0.68896484375,20.5078125,-131.89697265625,-101.86767578125
20607.047189791,0.3912353515625,0.8363037109375,-0.68896484375,20.5078125,-131.89697265625,-101.86767578125
20607.077677416,0.3912353515625,0.7286376953125,-0.68896484375,20.5078125,-131.89697265625,-101.86767578125
20607.082153291,0.3912353515625,0.7286376953125,-0.5606689453125,20.5078125,-131.89697265625,-101.86767578125
20607.082463291,0.3912353515625,0.7286376953125,-0.5606689453125,20.5078125,-131.4697265625,-101.86767578125
20607.082553916,0.3912353515625,0.7286376953125,-0.5606689453125,20.5078125,-131.4697265625,-106.38427734375
20607.13721775,0.3912353515625,0.832275390625,-0.5606689453125,20.5078125,-131.4697265625,-106.38427734375
20607.137431583,0.3912353515625,0.832275390625,-0.4749755859375,20.5078125,-131.4697265625,-106.38427734375
20607.167857875,0.3912353515625,0.832275390625,-0.4749755859375,11.16943359375,-131.4697265625,-106.38427734375
20607.168151166,0.3912353515625,0.832275390625,-0.4749755859375,11.16943359375,-131.4697265625,-109.06982421875
20607.190301875,0.3912353515625,0.8397216796875,-0.4749755859375,11.16943359375,-131.4697265625,-109.06982421875
20607.190409208,0.3912353515625,0.8397216796875,-0.5390625,11.16943359375,-131.4697265625,-109.06982421875
20607.190499958,0.3912353515625,0.8397216796875,-0.5390625,11.16943359375,-130.18798828125,-109.06982421875
20607.190598958,0.3912353515625,0.8397216796875,-0.5390625,11.16943359375,-130.18798828125,-105.1025390625
20607.197684291,0.715087890625,0.8397216796875,-0.5390625,11.16943359375,-130.18798828125,-105.1025390625
20607.197994666,0.715087890625,0.7264404296875,-0.5390625,11.16943359375,-130.18798828125,-105.1025390625
20607.198151583,0.715087890625,0.7264404296875,-0.456298828125,11.16943359375,-130.18798828125,-105.1025390625
20607.227029291,0.715087890625,0.7264404296875,-0.456298828125,11.16943359375,-123.10791015625,-105.1025390625
20607.227296416,0.715087890625,0.7264404296875,-0.456298828125,11.16943359375,-123.10791015625,-102.23388671875
20607.242470041,0.85595703125,0.7264404296875,-0.456298828125,11.16943359375,-123.10791015625,-102.23388671875
20607.242759625,0.85595703125,0.651123046875,-0.456298828125,11.16943359375,-123.10791015625,-102.23388671875
20607.242853791,0.85595703125,0.651123046875,-0.3551025390625,11.16943359375,-123.10791015625,-102.23388671875
20607.272221458,0.85595703125,0.651123046875,-0.3551025390625,11.16943359375,-123.10791015625,-111.6943359375
20607.272435708,0.9989013671875,0.651123046875,-0.3551025390625,11.16943359375,-123.10791015625,-111.6943359375
20607.273103916,0.9989013671875,0.5843505859375,-0.3551025390625,11.16943359375,-123.10791015625,-111.6943359375
20607.290034125,0.9989013671875,0.5843505859375,-0.3551025390625,11.16943359375,-127.74658203125,-111.6943359375
20607.290119333,0.9989013671875,0.5843505859375,-0.3551025390625,11.16943359375,-127.74658203125,-116.69921875
20607.317842625,1.0579833984375,0.5843505859375,-0.3551025390625,11.16943359375,-127.74658203125,-116.69921875
20607.3231235,1.0579833984375,0.6226806640625,-0.3551025390625,11.16943359375,-127.74658203125,-116.69921875
20607.323499666,1.0579833984375,0.6226806640625,-0.2989501953125,11.16943359375,-127.74658203125,-116.69921875
20607.323597375,1.0579833984375,0.6226806640625,-0.2989501953125,-1.03759765625,-127.74658203125,-116.69921875
20607.332254041,1.0382080078125,0.6226806640625,-0.2989501953125,-1.03759765625,-127.74658203125,-116.69921875
20607.332533666,1.0382080078125,0.5438232421875,-0.2989501953125,-1.03759765625,-127.74658203125,-116.69921875
20607.332685333,1.0382080078125,0.5438232421875,-0.29248046875,-1.03759765625,-127.74658203125,-116.69921875
20607.347503375,1.0382080078125,0.5438232421875,-0.29248046875,-1.03759765625,-110.77880859375,-116.69921875
20607.34772025,1.0382080078125,0.5438232421875,-0.29248046875,-1.03759765625,-110.77880859375,-94.7265625
20607.377575625,0.982421875,0.5438232421875,-0.29248046875,-1.03759765625,-110.77880859375,-94.7265625
20607.377788166,0.982421875,0.6156005859375,-0.29248046875,-1.03759765625,-110.77880859375,-94.7265625
20607.382547875,0.982421875,0.6156005859375,-0.2642822265625,-1.03759765625,-110.77880859375,-94.7265625
20607.408345208,0.982421875,0.6156005859375,-0.2642822265625,-1.03759765625,-92.1630859375,-94.7265625
20607.422875791,0.982421875,0.6156005859375,-0.2642822265625,-1.03759765625,-92.1630859375,-78.7353515625
20607.423122166,0.908447265625,0.6156005859375,-0.2642822265625,-1.03759765625,-92.1630859375,-78.7353515625
20607.440126958,0.908447265625,0.6729736328125,-0.2642822265625,-1.03759765625,-92.1630859375,-78.7353515625
20607.440208875,0.908447265625,0.6729736328125,-0.18505859375,-1.03759765625,-92.1630859375,-78.7353515625
20607.440281583,0.908447265625,0.6729736328125,-0.18505859375,-1.03759765625,-92.1630859375,-40.22216796875
20607.4561645,0.7930908203125,0.6729736328125,-0.18505859375,-1.03759765625,-92.1630859375,-40.22216796875
20607.456251333,0.7930908203125,0.8636474609375,-0.18505859375,-1.03759765625,-92.1630859375,-40.22216796875
20607.456323791,0.7930908203125,0.8636474609375,-0.4581298828125,-1.03759765625,-92.1630859375,-40.22216796875
20607.512287625,0.7930908203125,0.8636474609375,-0.4581298828125,-1.03759765625,-41.93115234375,-40.22216796875
20607.512524666,0.7930908203125,0.8636474609375,-0.4581298828125,-1.03759765625,-41.93115234375,-37.2314453125
20607.542278583,0.887939453125,0.8636474609375,-0.4581298828125,-1.03759765625,-41.93115234375,-37.2314453125
20607.542517708,0.887939453125,0.584716796875,-0.4581298828125,-1.03759765625,-41.93115234375,-37.2314453125
20607.543202125,0.887939453125,0.584716796875,-0.4581298828125,-1.03759765625,-26.0009765625,-37.2314453125
20607.543400916,0.887939453125,0.584716796875,-0.4581298828125,-1.03759765625,-26.0009765625,-31.8603515625
20607.587399041,0.887939453125,0.5247802734375,-0.4581298828125,-1.03759765625,-26.0009765625,-31.8603515625
20607.587573458,0.887939453125,0.5247802734375,-0.20361328125,-1.03759765625,-26.0009765625,-31.8603515625
20607.588132333,0.887939453125,0.5247802734375,-0.20361328125,-11.1083984375,-26.0009765625,-31.8603515625
20607.588208333,0.887939453125,0.5247802734375,-0.20361328125,-11.1083984375,-26.0009765625,11.41357421875
20607.605928083,0.887939453125,0.41259765625,-0.20361328125,-11.1083984375,-26.0009765625,11.41357421875
20607.606016083,0.887939453125,0.41259765625,-0.1416015625,-11.1083984375,-26.0009765625,11.41357421875
20607.606090625,0.887939453125,0.41259765625,-0.1416015625,2.5634765625,-26.0009765625,11.41357421875
NEW_REP,,,,,,
20607.647334791,0.887939453125,0.41259765625,-0.1416015625,2.5634765625,-26.0009765625,16.845703125
20607.64861175,0.917236328125,0.41259765625,-0.1416015625,2.5634765625,-26.0009765625,16.845703125
20607.648838083,0.917236328125,0.4227294921875,-0.1416015625,2.5634765625,-26.0009765625,16.845703125
20607.648947125,0.917236328125,0.4227294921875,-0.2335205078125,2.5634765625,-26.0009765625,16.845703125
20607.707948,0.917236328125,0.4227294921875,-0.2335205078125,2.5634765625,29.47998046875,16.845703125
20607.708324916,0.917236328125,0.4227294921875,-0.2335205078125,2.5634765625,29.47998046875,30.2734375
20607.70849025,0.8955078125,0.4227294921875,-0.2335205078125,2.5634765625,29.47998046875,30.2734375
20607.723541041,0.8955078125,0.54736328125,-0.2335205078125,2.5634765625,29.47998046875,30.2734375
20607.723646125,0.8955078125,0.54736328125,-0.2335205078125,2.5634765625,58.9599609375,30.2734375
20607.752279083,0.8955078125,0.54736328125,-0.2335205078125,2.5634765625,58.9599609375,50.84228515625
20607.752511708,0.915283203125,0.54736328125,-0.2335205078125,2.5634765625,58.9599609375,50.84228515625
20607.753281791,0.915283203125,0.6851806640625,-0.2335205078125,2.5634765625,58.9599609375,50.84228515625
20607.75348325,0.915283203125,0.6851806640625,-0.475830078125,2.5634765625,58.9599609375,50.84228515625
20607.782085291,0.915283203125,0.6851806640625,-0.475830078125,2.5634765625,97.0458984375,50.84228515625
20607.78228625,0.915283203125,0.6851806640625,-0.475830078125,2.5634765625,97.0458984375,76.23291015625
20607.828161791,0.8963623046875,0.6851806640625,-0.475830078125,2.5634765625,97.0458984375,76.23291015625
20607.828458375,0.8963623046875,0.7662353515625,-0.475830078125,2.5634765625,97.0458984375,76.23291015625
20607.842616625,0.8963623046875,0.7662353515625,-0.5469970703125,2.5634765625,97.0458984375,76.23291015625
20607.8428255,0.9078369140625,0.7662353515625,-0.5469970703125,2.5634765625,97.0458984375,76.23291015625
20607.872456375,0.9078369140625,0.7662353515625,-0.6488037109375,2.5634765625,97.0458984375,76.23291015625
20607.872784291,0.9078369140625,0.7662353515625,-0.6488037109375,-9.3994140625,97.0458984375,76.23291015625
20607.873078333,0.9078369140625,0.7662353515625,-0.6488037109375,-9.3994140625,97.0458984375,100.4638671875
20607.890329291,0.8759765625,0.7662353515625,-0.6488037109375,-9.3994140625,97.0458984375,100.4638671875
20607.890437916,0.8759765625,0.9049072265625,-0.6488037109375,-9.3994140625,97.0458984375,100.4638671875
20607.890525541,0.8759765625,0.9049072265625,-0.6917724609375,-9.3994140625,97.0458984375,100.4638671875
20607.932715666,0.8759765625,0.9049072265625,-0.6917724609375,-9.3994140625,97.0458984375,121.64306640625
20607.932971333,0.7623291015625,0.9049072265625,-0.6917724609375,-9.3994140625,97.0458984375,121.64306640625
20608.03797975,0.7623291015625,0.8018798828125,-0.6917724609375,-9.3994140625,97.0458984375,121.64306640625
20608.03834225,0.7623291015625,0.8018798828125,-0.69921875,-9.3994140625,97.0458984375,121.64306640625
20608.03850275,0.7623291015625,0.8018798828125,-0.69921875,-9.3994140625,180.7861328125,121.64306640625
20608.03869275,0.7623291015625,0.8018798828125,-0.69921875,-9.3994140625,180.7861328125,128.84521484375
20608.073094041,0.7623291015625,0.92724609375,-0.69921875,-9.3994140625,180.7861328125,128.84521484375
20608.073178666,0.7623291015625,0.92724609375,-0.5447998046875,-9.3994140625,180.7861328125,128.84521484375
20608.07326125,0.7623291015625,0.92724609375,-0.5447998046875,41.6259765625,180.7861328125,128.84521484375
20608.0813,0.7623291015625,0.92724609375,-0.5447998046875,41.6259765625,180.7861328125,132.62939453125
20608.097532583,0.1639404296875,0.92724609375,-0.5447998046875,41.6259765625,180.7861328125,132.62939453125
20608.112602125,0.1639404296875,0.8238525390625,-0.5447998046875,41.6259765625,180.7861328125,132.62939453125
20608.113002333,0.1639404296875,0.8238525390625,-0.5086669921875,41.6259765625,180.7861328125,132.62939453125
20608.113067833,0.1639404296875,0.8238525390625,-0.5086669921875,41.6259765625,147.5830078125,132.62939453125
20608.113369208,0.1639404296875,0.8238525390625,-0.5086669921875,41.6259765625,147.5830078125,137.63427734375
20608.127142958,0.0010986328125,0.8238525390625,-0.5086669921875,41.6259765625,147.5830078125,137.63427734375
20608.142741333,0.0010986328125,0.7166748046875,-0.5086669921875,41.6259765625,147.5830078125,137.63427734375
20608.142912208,0.0010986328125,0.7166748046875,-0.572021484375,41.6259765625,147.5830078125,137.63427734375
20608.144024083,0.0010986328125,0.7166748046875,-0.572021484375,41.6259765625,138.3056640625,137.63427734375
20608.144163291,0.0010986328125,0.7166748046875,-0.572021484375,41.6259765625,138.3056640625,132.32421875
20608.172547916,-0.0396728515625,0.7166748046875,-0.572021484375,41.6259765625,138.3056640625,132.32421875
20608.17276675,-0.0396728515625,1.0953369140625,-0.572021484375,41.6259765625,138.3056640625,132.32421875
20608.172923125,-0.0396728515625,1.0953369140625,-0.6666259765625,41.6259765625,138.3056640625,132.32421875
20608.187978291,-0.0396728515625,1.0953369140625,-0.6666259765625,-55.60302734375,138.3056640625,132.32421875
20608.188267791,-0.2076416015625,1.0953369140625,-0.6666259765625,-55.60302734375,138.3056640625,132.32421875
20608.188343291,-0.2076416015625,0.9281005859375,-0.6666259765625,-55.60302734375,138.3056640625,132.32421875
20608.188420958,-0.2076416015625,0.9281005859375,-0.562255859375,-55.60302734375,138.3056640625,132.32421875
20608.206250916,-0.2076416015625,0.9281005859375,-0.562255859375,-55.60302734375,159.48486328125,132.32421875
20608.206337791,-0.2076416015625,0.9281005859375,-0.562255859375,-55.60302734375,159.48486328125,149.169921875
20608.223167333,-0.3939208984375,0.9281005859375,-0.562255859375,-55.60302734375,159.48486328125,149.169921875
20608.223243291,-0.3939208984375,0.5438232421875,-0.562255859375,-55.60302734375,159.48486328125,149.169921875
20608.223307583,-0.3939208984375,0.5438232421875,-0.439697265625,-55.60302734375,159.48486328125,149.169921875
20608.247480833,-0.3939208984375,0.5438232421875,-0.439697265625,-55.60302734375,177.42919921875,149.169921875
20608.247673416,-0.3939208984375,0.5438232421875,-0.439697265625,-55.60302734375,177.42919921875,153.01513671875
20608.248192,-0.4876708984375,0.5438232421875,-0.439697265625,-55.60302734375,177.42919921875,153.01513671875
20608.248362458,-0.4876708984375,0.4267578125,-0.439697265625,-55.60302734375,177.42919921875,153.01513671875
20608.278119958,-0.4876708984375,0.4267578125,-0.439697265625,-55.60302734375,175.537109375,153.01513671875
20608.281840375,-0.4876708984375,0.4267578125,-0.439697265625,-55.60302734375,175.537109375,143.61572265625
20608.307931041,-0.4873046875,0.4267578125,-0.439697265625,-55.60302734375,175.537109375,143.61572265625
20608.31253375,-0.4873046875,0.1158447265625,-0.439697265625,-55.60302734375,175.537109375,143.61572265625
20608.31268025,-0.4873046875,0.1158447265625,0.3182373046875,-55.60302734375,175.537109375,143.61572265625
20608.322223,-0.4873046875,0.1158447265625,0.3182373046875,-55.60302734375,175.537109375,120.91064453125
20608.339284208,-0.580078125,0.1158447265625,0.3182373046875,-55.60302734375,175.537109375,120.91064453125
20608.33936,-0.580078125,-0.0362548828125,0.3182373046875,-55.60302734375,175.537109375,120.91064453125
20608.339477958,-0.580078125,-0.0362548828125,0.6065673828125,-55.60302734375,175.537109375,120.91064453125
20608.356276416,-0.580078125,-0.0362548828125,0.6065673828125,-55.60302734375,61.1572265625,120.91064453125
20608.356349041,-0.580078125,-0.0362548828125,0.6065673828125,-55.60302734375,61.1572265625,48.9501953125
20608.372722708,-0.6351318359375,-0.0362548828125,0.6065673828125,-55.60302734375,61.1572265625,48.9501953125
20608.372805791,-0.6351318359375,-0.0045166015625,0.6065673828125,-55.60302734375,61.1572265625,48.9501953125
20608.372876916,-0.6351318359375,-0.0045166015625,0.5450439453125,-55.60302734375,61.1572265625,48.9501953125
20608.382386125,-0.6351318359375,-0.0045166015625,0.5450439453125,-55.60302734375,-7.9345703125,48.9501953125
20608.38254025,-0.6351318359375,-0.0045166015625,0.5450439453125,-55.60302734375,-7.9345703125,4.82177734375
20608.397362583,-0.6373291015625,-0.0045166015625,0.5450439453125,-55.60302734375,-7.9345703125,4.82177734375
20608.397539875,-0.6373291015625,0.0062255859375,0.5450439453125,-55.60302734375,-7.9345703125,4.82177734375
20608.398755583,-0.6373291015625,0.0062255859375,0.351318359375,-55.60302734375,-7.9345703125,4.82177734375
20608.412363791,-0.6373291015625,0.0062255859375,0.351318359375,-55.60302734375,-55.7861328125,4.82177734375
20608.412532,-0.6373291015625,0.0062255859375,0.351318359375,-55.60302734375,-55.7861328125,-27.83203125
20608.427547125,-0.6151123046875,0.0062255859375,0.351318359375,-55.60302734375,-55.7861328125,-27.83203125
20608.427761166,-0.6151123046875,0.156982421875,0.351318359375,-55.60302734375,-55.7861328125,-27.83203125
20608.427883916,-0.6151123046875,0.156982421875,0.077392578125,-55.60302734375,-55.7861328125,-27.83203125
20608.442542916,-0.6151123046875,0.156982421875,0.077392578125,-55.60302734375,-103.759765625,-27.83203125
20608.442724083,-0.6151123046875,0.156982421875,0.077392578125,-55.60302734375,-103.759765625,-66.83349609375
20608.457245083,-0.6273193359375,0.156982421875,0.077392578125,-55.60302734375,-103.759765625,-66.83349609375
20608.457447833,-0.6273193359375,0.2203369140625,0.077392578125,-55.60302734375,-103.759765625,-66.83349609375
20608.4575605,-0.6273193359375,0.2203369140625,-0.052490234375,-55.60302734375,-103.759765625,-66.83349609375
20608.472583666,-0.6273193359375,0.2203369140625,-0.052490234375,-55.60302734375,-125.18310546875,-66.83349609375
20608.472656875,-0.6273193359375,0.2203369140625,-0.052490234375,-55.60302734375,-125.18310546875,-87.158203125
20608.489431291,-0.5430908203125,0.2203369140625,-0.052490234375,-55.60302734375,-125.18310546875,-87.158203125
20608.489513625,-0.5430908203125,0.457763671875,-0.052490234375,-55.60302734375,-125.18310546875,-87.158203125
20608.489587208,-0.5430908203125,0.457763671875,-0.3798828125,-55.60302734375,-125.18310546875,-87.158203125
20608.506007125,-0.5430908203125,0.457763671875,-0.3798828125,-55.60302734375,-135.92529296875,-87.158203125
20608.50608975,-0.5430908203125,0.457763671875,-0.3798828125,-55.60302734375,-135.92529296875,-102.05078125
20608.522612666,-0.57080078125,0.457763671875,-0.3798828125,-55.60302734375,-135.92529296875,-102.05078125
20608.522691583,-0.57080078125,0.4619140625,-0.3798828125,-55.60302734375,-135.92529296875,-102.05078125
20608.522761875,-0.57080078125,0.4619140625,-0.354248046875,-55.60302734375,-135.92529296875,-102.05078125
20608.547280416,-0.57080078125,0.4619140625,-0.354248046875,-55.60302734375,-133.36181640625,-102.05078125
20608.547449916,-0.57080078125,0.4619140625,-0.354248046875,-55.60302734375,-133.36181640625,-109.55810546875
20608.548441083,-0.4825439453125,0.4619140625,-0.354248046875,-55.60302734375,-133.36181640625,-109.55810546875
20608.548627375,-0.4825439453125,0.6917724609375,-0.354248046875,-55.60302734375,-133.36181640625,-109.55810546875
20608.622921166,-0.4825439453125,0.6917724609375,-0.354248046875,-55.60302734375,-131.89697265625,-109.55810546875
20608.623265791,-0.4825439453125,0.6917724609375,-0.354248046875,-55.60302734375,-131.89697265625,-105.52978515625
20608.639988791,-0.4395751953125,0.6917724609375,-0.354248046875,-55.60302734375,-131.89697265625,-105.52978515625
20608.640084208,-0.4395751953125,0.7408447265625,-0.354248046875,-55.60302734375,-131.89697265625,-105.52978515625
20608.640162,-0.4395751953125,0.7408447265625,-0.354248046875,-55.60302734375,-125.0,-105.52978515625
20608.640234875,-0.4395751953125,0.7408447265625,-0.354248046875,-55.60302734375,-125.0,-97.2900390625
20608.656715375,-0.1927490234375,0.7408447265625,-0.354248046875,-55.60302734375,-125.0,-97.2900390625
20608.656792041,-0.1927490234375,0.7486572265625,-0.354248046875,-55.60302734375,-125.0,-97.2900390625
20608.656862916,-0.1927490234375,0.7486572265625,-0.644775390625,-55.60302734375,-125.0,-97.2900390625
20608.673228208,-0.1927490234375,0.7486572265625,-0.644775390625,-55.60302734375,-122.86376953125,-97.2900390625
20608.67331475,-0.1927490234375,0.7486572265625,-0.644775390625,-55.60302734375,-122.86376953125,-97.10693359375
20608.682449125,-0.1339111328125,0.7486572265625,-0.644775390625,-55.60302734375,-122.86376953125,-97.10693359375
20608.682677666,-0.1339111328125,0.770263671875,-0.644775390625,-55.60302734375,-122.86376953125,-97.10693359375
20608.682796791,-0.1339111328125,0.770263671875,-0.6199951171875,-55.60302734375,-122.86376953125,-97.10693359375
20608.697648333,-0.1339111328125,0.770263671875,-0.6199951171875,-55.60302734375,-122.9248046875,-97.10693359375
20608.697819333,-0.1339111328125,0.770263671875,-0.6199951171875,-55.60302734375,-122.9248046875,-96.49658203125
20608.712657958,-0.009033203125,0.770263671875,-0.6199951171875,-55.60302734375,-122.9248046875,-96.49658203125
20608.7128765,-0.009033203125,0.7425537109375,-0.6199951171875,-55.60302734375,-122.9248046875,-96.49658203125
20608.7129935,-0.009033203125,0.7425537109375,-0.6806640625,-55.60302734375,-122.9248046875,-96.49658203125
20608.727627833,-0.009033203125,0.7425537109375,-0.6806640625,-55.60302734375,-126.64794921875,-96.49658203125
20608.727802875,-0.009033203125,0.7425537109375,-0.6806640625,-55.60302734375,-126.64794921875,-92.34619140625
20608.772630458,0.0989990234375,0.7425537109375,-0.6806640625,-55.60302734375,-126.64794921875,-92.34619140625
20608.777488083,0.0989990234375,0.823974609375,-0.6806640625,-55.60302734375,-126.64794921875,-92.34619140625
20608.777788333,0.0989990234375,0.823974609375,-0.752197265625,-55.60302734375,-126.64794921875,-92.34619140625
20608.777880541,0.0989990234375,0.823974609375,-0.752197265625,-4.39453125,-126.64794921875,-92.34619140625
20608.806167541,0.1278076171875,0.823974609375,-0.752197265625,-4.39453125,-126.64794921875,-92.34619140625
20608.806251458,0.1278076171875,0.787353515625,-0.752197265625,-4.39453125,-126.64794921875,-92.34619140625
20608.806324333,0.1278076171875,0.787353515625,-0.6160888671875,-4.39453125,-126.64794921875,-92.34619140625
20608.822843,0.1278076171875,0.787353515625,-0.6160888671875,-4.39453125,-120.849609375,-92.34619140625
20608.822924083,0.1278076171875,0.787353515625,-0.6160888671875,-4.39453125,-120.849609375,-84.3505859375
20608.8324805,0.3057861328125,0.787353515625,-0.6160888671875,-4.39453125,-120.849609375,-84.3505859375
20608.832679208,0.3057861328125,0.830078125,-0.6160888671875,-4.39453125,-120.849609375,-84.3505859375
20608.832803583,0.3057861328125,0.830078125,-0.7413330078125,-4.39453125,-120.849609375,-84.3505859375
20608.877602958,0.3057861328125,0.830078125,-0.7413330078125,-4.39453125,-119.140625,-84.3505859375
20608.877829583,0.3057861328125,0.830078125,-0.7413330078125,-4.39453125,-119.140625,-80.01708984375
20608.879168875,0.375244140625,0.830078125,-0.7413330078125,-4.39453125,-119.140625,-80.01708984375
20608.983575208,0.375244140625,0.830078125,-0.658935546875,-4.39453125,-119.140625,-80.01708984375
20608.984093041,0.375244140625,0.830078125,-0.658935546875,26.67236328125,-119.140625,-80.01708984375
20608.984255166,0.375244140625,0.830078125,-0.658935546875,26.67236328125,-117.85888671875,-80.01708984375
20609.006116041,0.513916015625,0.830078125,-0.658935546875,26.67236328125,-117.85888671875,-80.01708984375
20609.057936291,0.513916015625,0.830078125,-0.67529296875,26.67236328125,-117.85888671875,-80.01708984375
20609.059339416,0.513916015625,0.830078125,-0.67529296875,19.83642578125,-117.85888671875,-80.01708984375
20609.059591625,0.513916015625,0.830078125,-0.67529296875,19.83642578125,-110.29052734375,-80.01708984375
20609.059722375,0.6572265625,0.830078125,-0.67529296875,19.83642578125,-110.29052734375,-80.01708984375
20609.131771333,0.6572265625,0.830078125,-0.5172119140625,19.83642578125,-110.29052734375,-80.01708984375
20609.223715083,0.6572265625,0.830078125,-0.5172119140625,18.9208984375,-110.29052734375,-80.01708984375
20609.224231958,0.6572265625,0.830078125,-0.5172119140625,18.9208984375,-95.703125,-80.01708984375
20609.22503725,0.7608642578125,0.830078125,-0.5172119140625,18.9208984375,-95.703125,-80.01708984375
20609.225208625,0.7608642578125,0.830078125,-0.40234375,18.9208984375,-95.703125,-80.01708984375
20609.252630208,0.7608642578125,0.830078125,-0.40234375,18.9208984375,-92.529296875,-80.01708984375
20609.252856375,0.7608642578125,0.830078125,-0.40234375,18.9208984375,-92.529296875,-62.255859375
20609.253312791,0.94580078125,0.830078125,-0.40234375,18.9208984375,-92.529296875,-62.255859375
20609.253503291,0.94580078125,0.5452880859375,-0.40234375,18.9208984375,-92.529296875,-62.255859375
20609.312784,0.94580078125,0.5452880859375,-0.40234375,18.9208984375,-71.6552734375,-62.255859375
20609.313064625,0.94580078125,0.5452880859375,-0.40234375,18.9208984375,-71.6552734375,-59.2041015625
20609.339696458,0.9151611328125,0.5452880859375,-0.40234375,18.9208984375,-71.6552734375,-59.2041015625
20609.339791875,0.9151611328125,0.5452880859375,-0.2052001953125,18.9208984375,-71.6552734375,-59.2041015625
20609.339875833,0.9151611328125,0.5452880859375,-0.2052001953125,18.9208984375,-55.23681640625,-59.2041015625
20609.339951166,0.9151611328125,0.5452880859375,-0.2052001953125,18.9208984375,-55.23681640625,-40.8935546875
20609.357215666,0.8880615234375,0.5452880859375,-0.2052001953125,18.9208984375,-55.23681640625,-40.8935546875
20609.357324958,0.8880615234375,0.4647216796875,-0.2052001953125,18.9208984375,-55.23681640625,-40.8935546875
20609.358004041,0.8880615234375,0.4647216796875,-0.13720703125,18.9208984375,-55.23681640625,-40.8935546875
20609.387379083,0.8880615234375,0.4647216796875,-0.13720703125,18.9208984375,-32.89794921875,-40.8935546875
20609.387572916,0.8880615234375,0.4647216796875,-0.13720703125,18.9208984375,-32.89794921875,-26.9775390625
20609.388534583,0.8857421875,0.4647216796875,-0.13720703125,18.9208984375,-32.89794921875,-26.9775390625
20609.388719083,0.8857421875,0.4566650390625,-0.13720703125,18.9208984375,-32.89794921875,-26.9775390625
20609.402450125,0.8857421875,0.4566650390625,-0.13720703125,18.9208984375,-25.2685546875,-26.9775390625
20609.402641125,0.8857421875,0.4566650390625,-0.13720703125,18.9208984375,-25.2685546875,-18.49365234375
20609.432470416,0.8929443359375,0.4566650390625,-0.13720703125,18.9208984375,-25.2685546875,-18.49365234375
20609.432686708,0.8929443359375,0.466064453125,-0.13720703125,18.9208984375,-25.2685546875,-18.49365234375
20609.439591666,0.8929443359375,0.466064453125,-0.096435546875,18.9208984375,-25.2685546875,-18.49365234375
20609.447491583,0.8929443359375,0.466064453125,-0.096435546875,13.73291015625,-25.2685546875,-18.49365234375
20609.447714083,0.9224853515625,0.466064453125,-0.096435546875,13.73291015625,-25.2685546875,-18.49365234375
20609.447835166,0.9224853515625,0.4501953125,-0.096435546875,13.73291015625,-25.2685546875,-18.49365234375
20609.448502875,0.9224853515625,0.4501953125,-0.1029052734375,13.73291015625,-25.2685546875,-18.49365234375
20609.476846125,0.9224853515625,0.4501953125,-0.1029052734375,13.73291015625,-13.12255859375,-18.49365234375
20609.507461458,0.9224853515625,0.4501953125,-0.1029052734375,13.73291015625,-13.12255859375,-3.7841796875
20609.508741541,0.915283203125,0.4501953125,-0.1029052734375,13.73291015625,-13.12255859375,-3.7841796875
20609.508958083,0.915283203125,0.4501953125,-0.1324462890625,13.73291015625,-13.12255859375,-3.7841796875
20609.509099625,0.915283203125,0.4501953125,-0.1324462890625,-6.591796875,-13.12255859375,-3.7841796875
NEW_REP,,,,,,
20609.538849875,0.880126953125,0.4501953125,-0.1324462890625,-6.591796875,-13.12255859375,-3.7841796875
20609.555188041,0.880126953125,0.5084228515625,-0.1324462890625,-6.591796875,-13.12255859375,-3.7841796875
20609.555254625,0.880126953125,0.5084228515625,-0.1783447265625,-6.591796875,-13.12255859375,-3.7841796875
20609.555311416,0.880126953125,0.5084228515625,-0.1783447265625,-6.591796875,-2.62451171875,-3.7841796875
20609.555364625,0.880126953125,0.5084228515625,-0.1783447265625,-6.591796875,-2.62451171875,6.8359375
20609.5813195,0.880126953125,0.5084228515625,-0.249755859375,-6.591796875,-2.62451171875,6.8359375
20609.597470125,0.880126953125,0.5084228515625,-0.249755859375,-25.57373046875,-2.62451171875,6.8359375
20609.597602583,0.880126953125,0.5084228515625,-0.249755859375,-25.57373046875,17.39501953125,6.8359375
20609.612844,0.8795166015625,0.5084228515625,-0.249755859375,-25.57373046875,17.39501953125,6.8359375
20609.612976416,0.8795166015625,0.528564453125,-0.249755859375,-25.57373046875,17.39501953125,6.8359375
20609.614186833,0.8795166015625,0.528564453125,-0.249755859375,-25.57373046875,39.48974609375,6.8359375
20609.627350541,0.8795166015625,0.528564453125,-0.249755859375,-25.57373046875,39.48974609375,42.66357421875
20609.65715225,0.9000244140625,0.528564453125,-0.249755859375,-25.57373046875,39.48974609375,42.66357421875
20609.657288875,0.9000244140625,0.6546630859375,-0.249755859375,-25.57373046875,39.48974609375,42.66357421875
20609.657964208,0.9000244140625,0.6546630859375,-0.44970703125,-25.57373046875,39.48974609375,42.66357421875
20609.6722915,0.8221435546875,0.6546630859375,-0.44970703125,-25.57373046875,39.48974609375,42.66357421875
20609.687276791,0.8221435546875,0.8094482421875,-0.44970703125,-25.57373046875,39.48974609375,42.66357421875
20609.702321916,0.8221435546875,0.8094482421875,-0.482421875,-25.57373046875,39.48974609375,42.66357421875
20609.702481625,0.8221435546875,0.8094482421875,-0.482421875,-25.57373046875,39.48974609375,70.61767578125
20609.722432125,0.8570556640625,0.8094482421875,-0.482421875,-25.57373046875,39.48974609375,70.61767578125
20609.722502833,0.8570556640625,0.8052978515625,-0.482421875,-25.57373046875,39.48974609375,70.61767578125
20609.722566916,0.8570556640625,0.8052978515625,-0.482421875,-25.57373046875,128.35693359375,70.61767578125
20609.722629416,0.8570556640625,0.8052978515625,-0.482421875,-25.57373046875,128.35693359375,82.09228515625
20609.747919166,0.949951171875,0.8052978515625,-0.482421875,-25.57373046875,128.35693359375,82.09228515625
20609.748125666,0.949951171875,0.83642578125,-0.482421875,-25.57373046875,128.35693359375,82.09228515625
20609.7481945,0.949951171875,0.83642578125,-0.619873046875,-25.57373046875,128.35693359375,82.09228515625
20609.748363875,0.949951171875,0.83642578125,-0.619873046875,-41.6259765625,128.35693359375,82.09228515625
20609.777657541,0.951416015625,0.83642578125,-0.619873046875,-41.6259765625,128.35693359375,82.09228515625
20609.781447958,0.951416015625,0.7923583984375,-0.619873046875,-41.6259765625,128.35693359375,82.09228515625
20609.781629291,0.951416015625,0.7923583984375,-0.7421875,-41.6259765625,128.35693359375,82.09228515625
20609.808583166,0.951416015625,0.7923583984375,-0.7421875,-41.6259765625,163.51318359375,82.09228515625
20609.852216583,0.951416015625,0.7923583984375,-0.7421875,-41.6259765625,163.51318359375,100.64697265625
20609.852406083,0.9508056640625,0.7923583984375,-0.7421875,-41.6259765625,163.51318359375,100.64697265625
20609.853065583,0.9508056640625,0.8094482421875,-0.7421875,-41.6259765625,163.51318359375,100.64697265625
20609.853216416,0.9508056640625,0.8094482421875,-0.7476806640625,-41.6259765625,163.51318359375,100.64697265625
20609.872392583,0.9508056640625,0.8094482421875,-0.7476806640625,-41.6259765625,163.51318359375,117.3095703125
20609.912490291,0.7353515625,0.8094482421875,-0.7476806640625,-41.6259765625,163.51318359375,117.3095703125
20609.912700833,0.7353515625,0.7847900390625,-0.7476806640625,-41.6259765625,163.51318359375,117.3095703125
20609.913538416,0.7353515625,0.7847900390625,-0.9129638671875,-41.6259765625,163.51318359375,117.3095703125
20609.91370725,0.7353515625,0.7847900390625,-0.9129638671875,-4.150390625,163.51318359375,117.3095703125
20609.939056875,0.583984375,0.7847900390625,-0.9129638671875,-4.150390625,163.51318359375,117.3095703125
20609.939131125,0.583984375,0.7559814453125,-0.9129638671875,-4.150390625,163.51318359375,117.3095703125
20609.939194625,0.583984375,0.7559814453125,-0.922607421875,-4.150390625,163.51318359375,117.3095703125
20609.942492333,0.583984375,0.7559814453125,-0.922607421875,-4.150390625,213.19580078125,117.3095703125
20609.94265975,0.583984375,0.7559814453125,-0.922607421875,-4.150390625,213.19580078125,132.080078125
20609.957476208,0.5528564453125,0.7559814453125,-0.922607421875,-4.150390625,213.19580078125,132.080078125
20609.957647958,0.5528564453125,0.8177490234375,-0.922607421875,-4.150390625,213.19580078125,132.080078125
20609.957745375,0.5528564453125,0.8177490234375,-1.1380615234375,-4.150390625,213.19580078125,132.080078125
20609.972207083,0.5528564453125,0.8177490234375,-1.1380615234375,-4.150390625,235.7177734375,132.080078125
20609.972369333,0.5528564453125,0.8177490234375,-1.1380615234375,-4.150390625,235.7177734375,140.80810546875
20609.988856416,0.380126953125,0.8177490234375,-1.1380615234375,-4.150390625,235.7177734375,140.80810546875
20609.988928791,0.380126953125,0.8115234375,-1.1380615234375,-4.150390625,235.7177734375,140.80810546875
20609.988991,0.380126953125,0.8115234375,-0.7694091796875,-4.150390625,235.7177734375,140.80810546875
20610.005428041,0.380126953125,0.8115234375,-0.7694091796875,-4.150390625,255.615234375,140.80810546875
20610.005502,0.380126953125,0.8115234375,-0.7694091796875,-4.150390625,255.615234375,146.8505859375
20610.022233125,0.1014404296875,0.8115234375,-0.7694091796875,-4.150390625,255.615234375,146.8505859375
20610.022305,0.1014404296875,0.704345703125,-0.7694091796875,-4.150390625,255.615234375,146.8505859375
20610.022365875,0.1014404296875,0.704345703125,-0.630859375,-4.150390625,255.615234375,146.8505859375
20610.032913666,0.1014404296875,0.704345703125,-0.630859375,-4.150390625,254.69970703125,146.8505859375
20610.038887958,0.1014404296875,0.704345703125,-0.630859375,-4.150390625,254.69970703125,154.72412109375
20610.092906916,0.015380859375,0.704345703125,-0.630859375,-4.150390625,254.69970703125,154.72412109375
20610.093119541,0.015380859375,0.235107421875,-0.630859375,-4.150390625,254.69970703125,154.72412109375
20610.093623041,0.015380859375,0.235107421875,-0.62646484375,-4.150390625,254.69970703125,154.72412109375
20610.093820666,0.015380859375,0.235107421875,-0.62646484375,-4.150390625,243.22509765625,154.72412109375
20610.1224605,-0.145751953125,0.235107421875,-0.62646484375,-4.150390625,243.22509765625,154.72412109375
20610.12265625,-0.145751953125,0.4334716796875,-0.62646484375,-4.150390625,243.22509765625,154.72412109375
20610.122721083,-0.145751953125,0.4334716796875,-0.3074951171875,-4.150390625,243.22509765625,154.72412109375
20610.139013666,-0.145751953125,0.4334716796875,-0.3074951171875,-4.150390625,243.71337890625,154.72412109375
20610.139083666,-0.145751953125,0.4334716796875,-0.3074951171875,-4.150390625,243.71337890625,131.04248046875
20610.155809833,-0.363037109375,0.4334716796875,-0.3074951171875,-4.150390625,243.71337890625,131.04248046875
20610.155882541,-0.363037109375,-0.123779296875,-0.3074951171875,-4.150390625,243.71337890625,131.04248046875
20610.15594425,-0.363037109375,-0.123779296875,0.4061279296875,-4.150390625,243.71337890625,131.04248046875
20610.172533,-0.363037109375,-0.123779296875,0.4061279296875,-4.150390625,202.45361328125,131.04248046875
20610.172604083,-0.363037109375,-0.123779296875,0.4061279296875,-4.150390625,202.45361328125,123.35205078125
20610.182293416,-0.444580078125,-0.123779296875,0.4061279296875,-4.150390625,202.45361328125,123.35205078125
20610.182545791,-0.444580078125,-0.30126953125,0.4061279296875,-4.150390625,202.45361328125,123.35205078125
20610.18268325,-0.444580078125,-0.30126953125,0.8997802734375,-4.150390625,202.45361328125,123.35205078125
20610.197405666,-0.444580078125,-0.30126953125,0.8997802734375,-4.150390625,121.03271484375,123.35205078125
20610.197600041,-0.444580078125,-0.30126953125,0.8997802734375,-4.150390625,121.03271484375,77.1484375
20610.21241725,-0.4879150390625,-0.30126953125,0.8997802734375,-4.150390625,121.03271484375,77.1484375
20610.212561291,-0.4879150390625,-0.050537109375,0.8997802734375,-4.150390625,121.03271484375,77.1484375
20610.213734708,-0.4879150390625,-0.050537109375,1.0093994140625,-4.150390625,121.03271484375,77.1484375
20610.227394791,-0.4879150390625,-0.050537109375,1.0093994140625,-4.150390625,8.72802734375,77.1484375
20610.227539916,-0.4879150390625,-0.050537109375,1.0093994140625,-4.150390625,8.72802734375,23.62060546875
20610.242837208,-0.5289306640625,-0.050537109375,1.0093994140625,-4.150390625,8.72802734375,23.62060546875
20610.243020666,-0.5289306640625,-0.17333984375,1.0093994140625,-4.150390625,8.72802734375,23.62060546875
20610.24311825,-0.5289306640625,-0.17333984375,0.6298828125,-4.150390625,8.72802734375,23.62060546875
20610.257363333,-0.5289306640625,-0.17333984375,0.6298828125,-4.150390625,-63.5986328125,23.62060546875
20610.257520583,-0.5289306640625,-0.17333984375,0.6298828125,-4.150390625,-63.5986328125,-16.54052734375
20610.272410833,-0.4849853515625,-0.17333984375,0.6298828125,-4.150390625,-63.5986328125,-16.54052734375
20610.272584541,-0.4849853515625,-0.138916015625,0.6298828125,-4.150390625,-63.5986328125,-16.54052734375
20610.272682458,-0.4849853515625,-0.138916015625,0.206787109375,-4.150390625,-63.5986328125,-16.54052734375
20610.28878425,-0.4849853515625,-0.138916015625,0.206787109375,-4.150390625,-124.8779296875,-16.54052734375
20610.288853833,-0.4849853515625,-0.138916015625,0.206787109375,-4.150390625,-124.8779296875,-74.3408203125
20610.305418708,-0.527099609375,-0.138916015625,0.206787109375,-4.150390625,-124.8779296875,-74.3408203125
20610.305485916,-0.527099609375,0.076171875,0.206787109375,-4.150390625,-124.8779296875,-74.3408203125
20610.305547666,-0.527099609375,0.076171875,-0.03857421875,-4.150390625,-124.8779296875,-74.3408203125
20610.322178666,-0.527099609375,0.076171875,-0.03857421875,-4.150390625,-150.146484375,-74.3408203125
20610.322247916,-0.527099609375,0.076171875,-0.03857421875,-4.150390625,-150.146484375,-109.31396484375
20610.332279166,-0.4957275390625,0.076171875,-0.03857421875,-4.150390625,-150.146484375,-109.31396484375
20610.347646083,-0.4957275390625,0.183349609375,-0.03857421875,-4.150390625,-150.146484375,-109.31396484375
20610.347837833,-0.4957275390625,0.183349609375,-0.2486572265625,-4.150390625,-150.146484375,-109.31396484375
20610.347921208,-0.4957275390625,0.183349609375,-0.2486572265625,-4.150390625,-164.73388671875,-109.31396484375
20610.348418541,-0.4957275390625,0.183349609375,-0.2486572265625,-4.150390625,-164.73388671875,-140.869140625
20610.362589,-0.3843994140625,0.183349609375,-0.2486572265625,-4.150390625,-164.73388671875,-140.869140625
20610.36273,-0.3843994140625,0.2899169921875,-0.2486572265625,-4.150390625,-164.73388671875,-140.869140625
20610.362793375,-0.3843994140625,0.2899169921875,-0.3048095703125,-4.150390625,-164.73388671875,-140.869140625
20610.391675333,-0.3843994140625,0.2899169921875,-0.3048095703125,-4.150390625,-187.3779296875,-140.869140625
20610.397259,-0.3843994140625,0.2899169921875,-0.3048095703125,-4.150390625,-187.3779296875,-155.45654296875
20610.397326541,-0.3123779296875,0.2899169921875,-0.3048095703125,-4.150390625,-187.3779296875,-155.45654296875
20610.422803208,-0.3123779296875,0.2899169921875,-0.557861328125,-4.150390625,-187.3779296875,-155.45654296875
20610.426752291,-0.3123779296875,0.2899169921875,-0.557861328125,-45.166015625,-187.3779296875,-155.45654296875
20610.426837125,-0.3123779296875,0.2899169921875,-0.557861328125,-45.166015625,-175.048828125,-155.45654296875
20610.437334958,-0.2484130859375,0.2899169921875,-0.557861328125,-45.166015625,-175.048828125,-155.45654296875
20610.455687125,-0.2484130859375,0.6385498046875,-0.557861328125,-45.166015625,-175.048828125,-155.45654296875
20610.455887583,-0.2484130859375,0.6385498046875,-0.38037109375,-45.166015625,-175.048828125,-155.45654296875
20610.455958833,-0.2484130859375,0.6385498046875,-0.38037109375,-45.166015625,-180.419921875,-155.45654296875
20610.45602075,-0.2484130859375,0.6385498046875,-0.38037109375,-45.166015625,-180.419921875,-144.775390625
20610.472675666,-0.0396728515625,0.6385498046875,-0.38037109375,-45.166015625,-180.419921875,-144.775390625
20610.472740333,-0.0396728515625,0.5601806640625,-0.38037109375,-45.166015625,-180.419921875,-144.775390625
20610.472795625,-0.0396728515625,0.5601806640625,-0.7459716796875,-45.166015625,-180.419921875,-144.775390625
20610.482385916,-0.0396728515625,0.5601806640625,-0.7459716796875,-45.166015625,-182.373046875,-144.775390625
20610.482524833,-0.0396728515625,0.5601806640625,-0.7459716796875,-45.166015625,-182.373046875,-146.97265625
20610.497554791,0.058837890625,0.5601806640625,-0.7459716796875,-45.166015625,-182.373046875,-146.97265625
20610.497743375,0.058837890625,0.88671875,-0.7459716796875,-45.166015625,-182.373046875,-146.97265625
20610.497807,0.058837890625,0.88671875,-0.6611328125,-45.166015625,-182.373046875,-146.97265625
20610.512481666,0.058837890625,0.88671875,-0.6611328125,-45.166015625,-180.60302734375,-146.97265625
20610.512566375,0.058837890625,0.88671875,-0.6611328125,-45.166015625,-180.60302734375,-138.85498046875
20610.527343125,0.22119140625,0.88671875,-0.6611328125,-45.166015625,-180.60302734375,-138.85498046875
20610.527502875,0.22119140625,0.780029296875,-0.6611328125,-45.166015625,-180.60302734375,-138.85498046875
20610.527558625,0.22119140625,0.780029296875,-0.673828125,-45.166015625,-180.60302734375,-138.85498046875
20610.542491458,0.22119140625,0.780029296875,-0.673828125,-45.166015625,-177.79541015625,-138.85498046875
20610.542603791,0.22119140625,0.780029296875,-0.673828125,-45.166015625,-177.79541015625,-138.00048828125
20610.557422125,0.4127197265625,0.780029296875,-0.673828125,-45.166015625,-177.79541015625,-138.00048828125
20610.557554416,0.4127197265625,0.619384765625,-0.673828125,-45.166015625,-177.79541015625,-138.00048828125
20610.558603541,0.4127197265625,0.619384765625,-1.2003173828125,-45.166015625,-177.79541015625,-138.00048828125
20610.572238,0.4127197265625,0.619384765625,-1.2003173828125,-45.166015625,-154.6630859375,-138.00048828125
20610.572359375,0.4127197265625,0.619384765625,-1.2003173828125,-45.166015625,-154.6630859375,-136.77978515625
20610.588593,0.3958740234375,0.619384765625,-1.2003173828125,-45.166015625,-154.6630859375,-136.77978515625
20610.588656083,0.3958740234375,1.0972900390625,-1.2003173828125,-45.166015625,-154.6630859375,-136.77978515625
20610.588709916,0.3958740234375,1.0972900390625,-0.711181640625,-45.166015625,-154.6630859375,-136.77978515625
20610.605064333,0.3958740234375,1.0972900390625,-0.711181640625,-45.166015625,-159.72900390625,-136.77978515625
20610.605123083,0.3958740234375,1.0972900390625,-0.711181640625,-45.166015625,-159.72900390625,-120.42236328125
20610.621834333,0.4820556640625,1.0972900390625,-0.711181640625,-45.166015625,-159.72900390625,-120.42236328125
20610.621890791,0.4820556640625,0.954345703125,-0.711181640625,-45.166015625,-159.72900390625,-120.42236328125
20610.621943958,0.4820556640625,0.954345703125,-0.8148193359375,-45.166015625,-159.72900390625,-120.42236328125
20610.632534708,0.4820556640625,0.954345703125,-0.8148193359375,-45.166015625,-165.0390625,-120.42236328125
20610.638496666,0.4820556640625,0.954345703125,-0.8148193359375,-45.166015625,-165.0390625,-93.994140625
20610.647760375,0.692626953125,0.954345703125,-0.8148193359375,-45.166015625,-165.0390625,-93.994140625
20610.647959083,0.692626953125,0.5059814453125,-0.8148193359375,-45.166015625,-165.0390625,-93.994140625
20610.648040041,0.692626953125,0.5059814453125,-0.8980712890625,-45.166015625,-165.0390625,-93.994140625
20610.662656041,0.692626953125,0.5059814453125,-0.8980712890625,-45.166015625,-142.51708984375,-93.994140625
20610.662796166,0.692626953125,0.5059814453125,-0.8980712890625,-45.166015625,-142.51708984375,-109.92431640625
20610.722863458,0.603271484375,0.5059814453125,-0.8980712890625,-45.166015625,-142.51708984375,-109.92431640625
20610.723132166,0.603271484375,1.0933837890625,-0.8980712890625,-45.166015625,-142.51708984375,-109.92431640625
20610.723222791,0.603271484375,1.0933837890625,-0.6591796875,-45.166015625,-142.51708984375,-109.92431640625
20610.723556791,0.603271484375,1.0933837890625,-0.6591796875,-45.166015625,-143.49365234375,-109.92431640625
20610.73950975,0.8011474609375,1.0933837890625,-0.6591796875,-45.166015625,-143.49365234375,-109.92431640625
20610.739592666,0.8011474609375,0.4993896484375,-0.6591796875,-45.166015625,-143.49365234375,-109.92431640625
20610.739663833,0.8011474609375,0.4993896484375,-0.7952880859375,-45.166015625,-143.49365234375,-109.92431640625
20610.756293,0.8011474609375,0.4993896484375,-0.7952880859375,-45.166015625,-132.99560546875,-109.92431640625
20610.772592,0.8011474609375,0.4993896484375,-0.7952880859375,-45.166015625,-132.99560546875,-77.2705078125
20610.782631958,0.7655029296875,0.4993896484375,-0.7952880859375,-45.166015625,-132.99560546875,-77.2705078125
20610.789216375,0.7655029296875,0.7515869140625,-0.7952880859375,-45.166015625,-132.99560546875,-77.2705078125
20610.789321666,0.7655029296875,0.7515869140625,-0.5634765625,-45.166015625,-132.99560546875,-77.2705078125
