Timestamp,Accel_X,Accel_Y,Accel_Z,Gyro_X,Gyro_Y,Gyro_Z
252514.620104833,0.9111328125,0.0,0.0,0.0,0.0,0.0
252514.646835083,0.9193115234375,0.0,0.0,0.0,0.0,0.0
252514.664550583,0.919189453125,0.0,0.0,0.0,0.0,0.0
252514.664635916,0.919189453125,0.309326171875,0.0,0.0,0.0,0.0
252514.693346458,0.9180908203125,0.309326171875,0.0,0.0,0.0,0.0
252514.697811166,0.9180908203125,0.31005859375,0.0,0.0,0.0,0.0
252514.707158333,0.9117431640625,0.31005859375,0.0,0.0,0.0,0.0
252514.707806958,0.9117431640625,0.31591796875,0.0,0.0,0.0,0.0
252514.737386708,0.907470703125,0.31591796875,0.0,0.0,0.0,0.0
252514.73760875,0.907470703125,0.3221435546875,0.0,0.0,0.0,0.0
252514.738186458,0.907470703125,0.3221435546875,-0.1837158203125,0.0,0.0,0.0
252514.764645791,0.91015625,0.3221435546875,-0.1837158203125,0.0,0.0,0.0
252514.764725208,0.91015625,0.3138427734375,-0.1837158203125,0.0,0.0,0.0
252514.797380125,0.91650390625,0.3138427734375,-0.1837158203125,0.0,0.0,0.0
252514.797546458,0.91650390625,0.305908203125,-0.1837158203125,0.0,0.0,0.0
252514.799381958,0.91650390625,0.305908203125,-0.1805419921875,0.0,0.0,0.0
252514.799556458,0.91650390625,0.305908203125,-0.1805419921875,2.99072265625,0.0,0.0
252514.814571416,0.9149169921875,0.305908203125,-0.1805419921875,2.99072265625,0.0,0.0
252514.814648666,0.9149169921875,0.3150634765625,-0.1805419921875,2.99072265625,0.0,0.0
252514.843271375,0.9149169921875,0.3150634765625,-0.1805419921875,-0.8544921875,0.0,0.0
252514.864366458,0.9149169921875,0.3150634765625,-0.1805419921875,-0.8544921875,0.0,0.0
252514.864444208,0.9144287109375,0.3150634765625,-0.1805419921875,-0.8544921875,0.0,0.0
252514.864583416,0.9144287109375,0.3150634765625,-0.179931640625,-0.8544921875,0.0,0.0
252514.872339541,0.9144287109375,0.3150634765625,-0.179931640625,-0.8544921875,0.0,2.25830078125
252514.902546541,0.9110107421875,0.3150634765625,-0.179931640625,-0.8544921875,0.0,2.25830078125
252514.906862708,0.9110107421875,0.2833251953125,-0.179931640625,-0.8544921875,0.0,2.25830078125
252514.906960625,0.9110107421875,0.2833251953125,-0.1832275390625,-0.8544921875,0.0,2.25830078125
252514.907048833,0.9110107421875,0.2833251953125,-0.1832275390625,2.44140625,0.0,2.25830078125
252514.917150958,0.911376953125,0.2833251953125,-0.1832275390625,2.44140625,0.0,2.25830078125
252514.930885583,0.911376953125,0.304443359375,-0.1832275390625,2.44140625,0.0,2.25830078125
252514.931089708,0.911376953125,0.304443359375,-0.1795654296875,2.44140625,0.0,2.25830078125
252514.94815625,0.911376953125,0.304443359375,-0.1795654296875,2.44140625,0.91552734375,2.25830078125
252514.948237625,0.911376953125,0.304443359375,-0.1795654296875,2.44140625,0.91552734375,2.99072265625
252514.948308791,0.9180908203125,0.304443359375,-0.1795654296875,2.44140625,0.91552734375,2.99072265625
252514.96424625,0.9180908203125,0.304443359375,-0.1685791015625,2.44140625,0.91552734375,2.99072265625
252514.964324583,0.9180908203125,0.304443359375,-0.1685791015625,3.72314453125,0.91552734375,2.99072265625
252514.964394833,0.9180908203125,0.304443359375,-0.1685791015625,3.72314453125,0.8544921875,2.99072265625
252514.99200925,0.92041015625,0.304443359375,-0.1685791015625,3.72314453125,0.8544921875,2.99072265625
252514.997700708,0.92041015625,0.29736328125,-0.1685791015625,3.72314453125,0.8544921875,2.99072265625
252514.997777041,0.92041015625,0.29736328125,-0.1766357421875,3.72314453125,0.8544921875,2.99072265625
252514.997848625,0.92041015625,0.29736328125,-0.1766357421875,3.72314453125,0.54931640625,2.99072265625
252515.0084205,0.9178466796875,0.29736328125,-0.1766357421875,3.72314453125,0.54931640625,2.99072265625
252515.014430458,0.9178466796875,0.290771484375,-0.1766357421875,3.72314453125,0.54931640625,2.99072265625
252515.0145815,0.9178466796875,0.290771484375,-0.177734375,3.72314453125,0.54931640625,2.99072265625
252515.021523791,0.9178466796875,0.290771484375,-0.177734375,3.72314453125,0.6103515625,2.99072265625
252515.0228005,0.9178466796875,0.290771484375,-0.177734375,3.72314453125,0.6103515625,1.5869140625
252515.038959041,0.9140625,0.290771484375,-0.177734375,3.72314453125,0.6103515625,1.5869140625
252515.039216625,0.9140625,0.30859375,-0.177734375,3.72314453125,0.6103515625,1.5869140625
252515.039290375,0.9140625,0.30859375,-0.1680908203125,3.72314453125,0.6103515625,1.5869140625
252515.051521208,0.9140625,0.30859375,-0.1680908203125,3.72314453125,0.18310546875,1.5869140625
252515.0519395,0.9140625,0.30859375,-0.1680908203125,3.72314453125,0.18310546875,1.40380859375
252515.06698925,0.91162109375,0.30859375,-0.1680908203125,3.72314453125,0.18310546875,1.40380859375
252515.067165,0.91162109375,0.302490234375,-0.1680908203125,3.72314453125,0.18310546875,1.40380859375
252515.067736875,0.91162109375,0.302490234375,-0.1771240234375,3.72314453125,0.18310546875,1.40380859375
252515.082501166,0.91162109375,0.302490234375,-0.1771240234375,3.72314453125,-0.48828125,1.40380859375
252515.082642583,0.91162109375,0.302490234375,-0.1771240234375,3.72314453125,-0.48828125,0.9765625
252515.097896291,0.91259765625,0.302490234375,-0.1771240234375,3.72314453125,-0.48828125,0.9765625
252515.0980675,0.91259765625,0.3016357421875,-0.1771240234375,3.72314453125,-0.48828125,0.9765625
252515.098475166,0.91259765625,0.3016357421875,-0.172119140625,3.72314453125,-0.48828125,0.9765625
252515.114323541,0.91259765625,0.3016357421875,-0.172119140625,3.72314453125,-0.732421875,0.9765625
252515.11440425,0.91259765625,0.3016357421875,-0.172119140625,3.72314453125,-0.732421875,0.3662109375
252515.131200458,0.9173583984375,0.3016357421875,-0.172119140625,3.72314453125,-0.732421875,0.3662109375
252515.131274083,0.9173583984375,0.304443359375,-0.172119140625,3.72314453125,-0.732421875,0.3662109375
252515.131335375,0.9173583984375,0.304443359375,-0.1829833984375,3.72314453125,-0.732421875,0.3662109375
252515.147615458,0.9173583984375,0.304443359375,-0.1829833984375,3.72314453125,-0.6103515625,0.3662109375
252515.147690791,0.9173583984375,0.304443359375,-0.1829833984375,3.72314453125,-0.6103515625,1.03759765625
252515.15716125,0.916015625,0.304443359375,-0.1829833984375,3.72314453125,-0.6103515625,1.03759765625
252515.157380958,0.916015625,0.3046875,-0.1829833984375,3.72314453125,-0.6103515625,1.03759765625
252515.157474625,0.916015625,0.3046875,-0.179931640625,3.72314453125,-0.6103515625,1.03759765625
252515.186777833,0.916015625,0.3046875,-0.179931640625,3.72314453125,-0.48828125,1.03759765625
252515.186956708,0.916015625,0.3046875,-0.179931640625,3.72314453125,-0.48828125,0.91552734375
252515.188147958,0.9154052734375,0.3046875,-0.179931640625,3.72314453125,-0.48828125,0.91552734375
252515.188317958,0.9154052734375,0.2987060546875,-0.179931640625,3.72314453125,-0.48828125,0.91552734375
252515.202188125,0.9154052734375,0.2987060546875,-0.179931640625,3.72314453125,-0.42724609375,0.91552734375
252515.202382333,0.9154052734375,0.2987060546875,-0.179931640625,3.72314453125,-0.42724609375,0.6103515625
252515.232402458,0.91162109375,0.2987060546875,-0.179931640625,3.72314453125,-0.42724609375,0.6103515625
252515.232651541,0.91162109375,0.3087158203125,-0.179931640625,3.72314453125,-0.42724609375,0.6103515625
252515.233289333,0.91162109375,0.3087158203125,-0.1839599609375,3.72314453125,-0.42724609375,0.6103515625
252515.2335145,0.91162109375,0.3087158203125,-0.1839599609375,0.67138671875,-0.42724609375,0.6103515625
252515.248241708,0.911376953125,0.3087158203125,-0.1839599609375,0.67138671875,-0.42724609375,0.6103515625
252515.248333833,0.911376953125,0.31298828125,-0.1839599609375,0.67138671875,-0.42724609375,0.6103515625
252515.248417125,0.911376953125,0.31298828125,-0.177734375,0.67138671875,-0.42724609375,0.6103515625
252515.265205791,0.911376953125,0.31298828125,-0.177734375,0.67138671875,-0.30517578125,0.6103515625
252515.26530125,0.911376953125,0.31298828125,-0.177734375,0.67138671875,-0.30517578125,0.9765625
252515.2816125,0.9205322265625,0.31298828125,-0.177734375,0.67138671875,-0.30517578125,0.9765625
252515.281707708,0.9205322265625,0.2962646484375,-0.177734375,0.67138671875,-0.30517578125,0.9765625
252515.281791625,0.9205322265625,0.2962646484375,-0.1763916015625,0.67138671875,-0.30517578125,0.9765625
252515.292455,0.9205322265625,0.2962646484375,-0.1763916015625,0.67138671875,-0.18310546875,0.9765625
252515.298050375,0.9205322265625,0.2962646484375,-0.1763916015625,0.67138671875,-0.18310546875,1.03759765625
252515.306935,0.914306640625,0.2962646484375,-0.1763916015625,0.67138671875,-0.18310546875,1.03759765625
252515.307134541,0.914306640625,0.3048095703125,-0.1763916015625,0.67138671875,-0.18310546875,1.03759765625
252515.307787958,0.914306640625,0.3048095703125,-0.1856689453125,0.67138671875,-0.18310546875,1.03759765625
252515.322340041,0.914306640625,0.3048095703125,-0.1856689453125,0.67138671875,-0.6103515625,1.03759765625
252515.322536291,0.914306640625,0.3048095703125,-0.1856689453125,0.67138671875,-0.6103515625,1.8310546875
252515.337005083,0.910888671875,0.3048095703125,-0.1856689453125,0.67138671875,-0.6103515625,1.8310546875
252515.3372045,0.910888671875,0.319580078125,-0.1856689453125,0.67138671875,-0.6103515625,1.8310546875
252515.338000458,0.910888671875,0.319580078125,-0.1783447265625,0.67138671875,-0.6103515625,1.8310546875
252515.352770291,0.910888671875,0.319580078125,-0.1783447265625,0.67138671875,-0.30517578125,1.8310546875
252515.352944208,0.910888671875,0.319580078125,-0.1783447265625,0.67138671875,-0.30517578125,1.708984375
252515.382197708,0.9149169921875,0.319580078125,-0.1783447265625,0.67138671875,-0.30517578125,1.708984375
252515.382369083,0.9149169921875,0.2996826171875,-0.1783447265625,0.67138671875,-0.30517578125,1.708984375
252515.383128166,0.9149169921875,0.2996826171875,-0.1767578125,0.67138671875,-0.30517578125,1.708984375
252515.383307708,0.9149169921875,0.2996826171875,-0.1767578125,0.67138671875,0.30517578125,1.708984375
252515.397135583,0.915771484375,0.2996826171875,-0.1767578125,0.67138671875,0.30517578125,1.708984375
252515.397348625,0.915771484375,0.3082275390625,-0.1767578125,0.67138671875,0.30517578125,1.708984375
252515.397843041,0.915771484375,0.3082275390625,-0.1778564453125,0.67138671875,0.30517578125,1.708984375
252515.412745416,0.915771484375,0.3082275390625,-0.1778564453125,0.67138671875,0.1220703125,1.708984375
252515.412907833,0.915771484375,0.3082275390625,-0.1778564453125,0.67138671875,0.1220703125,1.03759765625
252515.442835875,0.916259765625,0.3082275390625,-0.1778564453125,0.67138671875,0.1220703125,1.03759765625
252515.444232583,0.916259765625,0.3275146484375,-0.1778564453125,0.67138671875,0.1220703125,1.03759765625
252515.444594333,0.916259765625,0.3275146484375,-0.2135009765625,0.67138671875,0.1220703125,1.03759765625
252515.4447175,0.916259765625,0.3275146484375,-0.2135009765625,-1.953125,0.1220703125,1.03759765625
252515.465286291,0.9111328125,0.3275146484375,-0.2135009765625,-1.953125,0.1220703125,1.03759765625
252515.465379708,0.9111328125,0.39208984375,-0.2135009765625,-1.953125,0.1220703125,1.03759765625
252515.465461958,0.9111328125,0.39208984375,-0.265869140625,-1.953125,0.1220703125,1.03759765625
252515.473316083,0.9111328125,0.39208984375,-0.265869140625,-1.953125,0.42724609375,1.03759765625
252515.473507458,0.9111328125,0.39208984375,-0.265869140625,-1.953125,0.42724609375,9.27734375
252515.486901208,0.912109375,0.39208984375,-0.265869140625,-1.953125,0.42724609375,9.27734375
252515.487075,0.912109375,0.593017578125,-0.265869140625,-1.953125,0.42724609375,9.27734375
252515.488226291,0.912109375,0.593017578125,-0.3275146484375,-1.953125,0.42724609375,9.27734375
252515.502683875,0.912109375,0.593017578125,-0.3275146484375,-1.953125,13.427734375,9.27734375
252515.502888458,0.912109375,0.593017578125,-0.3275146484375,-1.953125,13.427734375,20.5078125
252515.5163315,0.891357421875,0.593017578125,-0.3275146484375,-1.953125,13.427734375,20.5078125
252515.516654208,0.891357421875,0.640380859375,-0.3275146484375,-1.953125,13.427734375,20.5078125
252515.51816575,0.891357421875,0.640380859375,-0.3388671875,-1.953125,13.427734375,20.5078125
252515.531353083,0.891357421875,0.640380859375,-0.3388671875,-1.953125,30.1513671875,20.5078125
252515.532007916,0.891357421875,0.640380859375,-0.3388671875,-1.953125,30.1513671875,37.41455078125
252515.54821025,0.8919677734375,0.640380859375,-0.3388671875,-1.953125,30.1513671875,37.41455078125
252515.548313625,0.8919677734375,0.6390380859375,-0.3388671875,-1.953125,30.1513671875,37.41455078125
252515.549202583,0.8919677734375,0.6390380859375,-0.5279541015625,-1.953125,30.1513671875,37.41455078125
252515.56482225,0.8919677734375,0.6390380859375,-0.5279541015625,-1.953125,40.1611328125,37.41455078125
252515.5649125,0.8919677734375,0.6390380859375,-0.5279541015625,-1.953125,40.1611328125,52.42919921875
252515.581835041,0.8975830078125,0.6390380859375,-0.5279541015625,-1.953125,40.1611328125,52.42919921875
252515.581931916,0.8975830078125,0.6461181640625,-0.5279541015625,-1.953125,40.1611328125,52.42919921875
252515.582017708,0.8975830078125,0.6461181640625,-0.6031494140625,-1.953125,40.1611328125,52.42919921875
252515.592668,0.8975830078125,0.6461181640625,-0.6031494140625,-1.953125,60.60791015625,52.42919921875
252515.598000166,0.8975830078125,0.6461181640625,-0.6031494140625,-1.953125,60.60791015625,72.44873046875
252515.606967041,0.9119873046875,0.6461181640625,-0.6031494140625,-1.953125,60.60791015625,72.44873046875
252515.607133791,0.9119873046875,0.703369140625,-0.6031494140625,-1.953125,60.60791015625,72.44873046875
252515.61464275,0.9119873046875,0.703369140625,-0.584228515625,-1.953125,60.60791015625,72.44873046875
252515.622475708,0.9119873046875,0.703369140625,-0.584228515625,-1.953125,80.87158203125,72.44873046875
252515.622649791,0.9119873046875,0.703369140625,-0.584228515625,-1.953125,80.87158203125,86.669921875
252515.637105083,0.923583984375,0.703369140625,-0.584228515625,-1.953125,80.87158203125,86.669921875
252515.637296875,0.923583984375,0.7520751953125,-0.584228515625,-1.953125,80.87158203125,86.669921875
252515.652391666,0.923583984375,0.7520751953125,-0.7569580078125,-1.953125,80.87158203125,86.669921875
252515.652630708,0.923583984375,0.7520751953125,-0.7569580078125,-1.953125,106.99462890625,86.669921875
252515.652773083,0.923583984375,0.7520751953125,-0.7569580078125,-1.953125,106.99462890625,105.1025390625
252515.667323083,0.9075927734375,0.7520751953125,-0.7569580078125,-1.953125,106.99462890625,105.1025390625
252515.667559291,0.9075927734375,0.7154541015625,-0.7569580078125,-1.953125,106.99462890625,105.1025390625
252515.66764575,0.9075927734375,0.7154541015625,-0.84228515625,-1.953125,106.99462890625,105.1025390625
252515.682694125,0.9075927734375,0.7154541015625,-0.84228515625,-1.953125,125.48828125,105.1025390625
252515.682865416,0.9075927734375,0.7154541015625,-0.84228515625,-1.953125,125.48828125,114.3798828125
252515.69865375,0.891357421875,0.7154541015625,-0.84228515625,-1.953125,125.48828125,114.3798828125
252515.698877708,0.891357421875,0.7828369140625,-0.84228515625,-1.953125,125.48828125,114.3798828125
252515.698999958,0.891357421875,0.7828369140625,-0.876708984375,-1.953125,125.48828125,114.3798828125
252515.714894583,0.891357421875,0.7828369140625,-0.876708984375,-1.953125,139.09912109375,114.3798828125
252515.714992958,0.891357421875,0.7828369140625,-0.876708984375,-1.953125,139.09912109375,117.98095703125
252515.731556958,0.8597412109375,0.7828369140625,-0.876708984375,-1.953125,139.09912109375,117.98095703125
252515.7316565,0.8597412109375,0.830322265625,-0.876708984375,-1.953125,139.09912109375,117.98095703125
252515.731748875,0.8597412109375,0.830322265625,-0.9180908203125,-1.953125,139.09912109375,117.98095703125
252515.748043458,0.8597412109375,0.830322265625,-0.9180908203125,-1.953125,156.06689453125,117.98095703125
252515.74813625,0.8597412109375,0.830322265625,-0.9180908203125,-1.953125,156.06689453125,130.18798828125
252515.758678791,0.73974609375,0.830322265625,-0.9180908203125,-1.953125,156.06689453125,130.18798828125
252515.764763916,0.73974609375,0.728515625,-0.9180908203125,-1.953125,156.06689453125,130.18798828125
252515.764901833,0.73974609375,0.728515625,-0.943359375,-1.953125,156.06689453125,130.18798828125
252515.787378875,0.73974609375,0.728515625,-0.943359375,-1.953125,165.34423828125,130.18798828125
252515.787588875,0.73974609375,0.728515625,-0.943359375,-1.953125,165.34423828125,139.09912109375
252515.787945583,0.5936279296875,0.728515625,-0.943359375,-1.953125,165.34423828125,139.09912109375
252515.80287675,0.5936279296875,0.699462890625,-0.943359375,-1.953125,165.34423828125,139.09912109375
252515.8031375,0.5936279296875,0.699462890625,-0.943359375,-1.953125,174.31640625,139.09912109375
252515.80327075,0.5936279296875,0.699462890625,-0.943359375,-1.953125,174.31640625,136.23046875
252515.832513583,0.554443359375,0.699462890625,-0.943359375,-1.953125,174.31640625,136.23046875
252515.832749166,0.554443359375,0.6204833984375,-0.943359375,-1.953125,174.31640625,136.23046875
252515.833972,0.554443359375,0.6204833984375,-0.94970703125,-1.953125,174.31640625,136.23046875
252515.834200541,0.554443359375,0.6204833984375,-0.94970703125,-6.591796875,174.31640625,136.23046875
252515.84841125,0.468017578125,0.6204833984375,-0.94970703125,-6.591796875,174.31640625,136.23046875
252515.848507541,0.468017578125,0.56298828125,-0.94970703125,-6.591796875,174.31640625,136.23046875
252515.848596541,0.468017578125,0.56298828125,-0.8408203125,-6.591796875,174.31640625,136.23046875
252515.865230833,0.468017578125,0.56298828125,-0.8408203125,-6.591796875,185.24169921875,136.23046875
252515.86532625,0.468017578125,0.56298828125,-0.8408203125,-6.591796875,185.24169921875,121.15478515625
252515.881436875,0.377685546875,0.56298828125,-0.8408203125,-6.591796875,185.24169921875,121.15478515625
252515.881526083,0.377685546875,0.55859375,-0.8408203125,-6.591796875,185.24169921875,121.15478515625
252515.881610833,0.377685546875,0.55859375,-0.9833984375,-6.591796875,185.24169921875,121.15478515625
252515.892314125,0.377685546875,0.55859375,-0.9833984375,-6.591796875,188.8427734375,121.15478515625
252515.898049208,0.377685546875,0.55859375,-0.9833984375,-6.591796875,188.8427734375,113.09814453125
252515.907097416,0.3076171875,0.55859375,-0.9833984375,-6.591796875,188.8427734375,113.09814453125
252515.907272125,0.3076171875,0.53076171875,-0.9833984375,-6.591796875,188.8427734375,113.09814453125
252515.914843541,0.3076171875,0.53076171875,-0.966552734375,-6.591796875,188.8427734375,113.09814453125
252515.922660333,0.3076171875,0.53076171875,-0.966552734375,-6.591796875,195.6787109375,113.09814453125
252515.922874833,0.3076171875,0.53076171875,-0.966552734375,-6.591796875,195.6787109375,107.36083984375
252515.937147166,0.1810302734375,0.53076171875,-0.966552734375,-6.591796875,195.6787109375,107.36083984375
252515.937329041,0.1810302734375,0.4930419921875,-0.966552734375,-6.591796875,195.6787109375,107.36083984375
252515.937971625,0.1810302734375,0.4930419921875,-0.89697265625,-6.591796875,195.6787109375,107.36083984375
252515.952669958,0.1810302734375,0.4930419921875,-0.89697265625,-6.591796875,201.66015625,107.36083984375
252515.952877208,0.1810302734375,0.4930419921875,-0.89697265625,-6.591796875,201.66015625,97.2900390625
252515.967041208,0.105224609375,0.4930419921875,-0.89697265625,-6.591796875,201.66015625,97.2900390625
252515.967253333,0.105224609375,0.4970703125,-0.89697265625,-6.591796875,201.66015625,97.2900390625
252515.968059,0.105224609375,0.4970703125,-0.8475341796875,-6.591796875,201.66015625,97.2900390625
252515.9964195,0.105224609375,0.4970703125,-0.8475341796875,-6.591796875,207.21435546875,97.2900390625
252515.9976745,0.105224609375,0.4970703125,-0.8475341796875,-6.591796875,207.21435546875,88.19580078125
252515.997865375,0.03369140625,0.4970703125,-0.8475341796875,-6.591796875,207.21435546875,88.19580078125
252516.014739,0.03369140625,0.4970703125,-1.00537109375,-6.591796875,207.21435546875,88.19580078125
252516.014817666,0.03369140625,0.4970703125,-1.00537109375,15.56396484375,207.21435546875,88.19580078125
252516.014891708,0.03369140625,0.4970703125,-1.00537109375,15.56396484375,214.111328125,88.19580078125
252516.032220083,-0.0281982421875,0.4970703125,-1.00537109375,15.56396484375,214.111328125,88.19580078125
252516.03232925,-0.0281982421875,0.4130859375,-1.00537109375,15.56396484375,214.111328125,88.19580078125
252516.032419458,-0.0281982421875,0.4130859375,-0.691162109375,15.56396484375,214.111328125,88.19580078125
252516.042532791,-0.0281982421875,0.4130859375,-0.691162109375,15.56396484375,226.13525390625,88.19580078125
252516.0476385,-0.0281982421875,0.4130859375,-0.691162109375,15.56396484375,226.13525390625,84.9609375
252516.056976125,-0.132568359375,0.4130859375,-0.691162109375,15.56396484375,226.13525390625,84.9609375
252516.057042375,-0.132568359375,0.3636474609375,-0.691162109375,15.56396484375,226.13525390625,84.9609375
252516.06387975,-0.132568359375,0.3636474609375,-0.5826416015625,15.56396484375,226.13525390625,84.9609375
252516.072050375,-0.132568359375,0.3636474609375,-0.5826416015625,15.56396484375,230.89599609375,84.9609375
252516.072368041,-0.132568359375,0.3636474609375,-0.5826416015625,15.56396484375,230.89599609375,82.09228515625
252516.088095416,-0.2977294921875,0.3636474609375,-0.5826416015625,15.56396484375,230.89599609375,82.09228515625
252516.088292041,-0.2977294921875,0.2095947265625,-0.5826416015625,15.56396484375,230.89599609375,82.09228515625
252516.088407375,-0.2977294921875,0.2095947265625,-0.2069091796875,15.56396484375,230.89599609375,82.09228515625
252516.117546458,-0.2977294921875,0.2095947265625,-0.2069091796875,15.56396484375,232.2998046875,82.09228515625
252516.118423916,-0.2977294921875,0.2095947265625,-0.2069091796875,15.56396484375,232.2998046875,77.45361328125
252516.132888791,-0.2977294921875,0.20703125,-0.2069091796875,15.56396484375,232.2998046875,77.45361328125
252516.133113583,-0.2977294921875,0.20703125,0.1336669921875,15.56396484375,232.2998046875,77.45361328125
252516.133228333,-0.2977294921875,0.20703125,0.1336669921875,35.400390625,232.2998046875,77.45361328125
252516.147823125,-0.2977294921875,0.20703125,0.1336669921875,35.400390625,232.2998046875,73.79150390625
252516.163539666,-0.4796142578125,0.20703125,0.1336669921875,35.400390625,232.2998046875,73.79150390625
252516.163595541,-0.4796142578125,0.0269775390625,0.1336669921875,35.400390625,232.2998046875,73.79150390625
252516.163643416,-0.4796142578125,0.0269775390625,0.4683837890625,35.400390625,232.2998046875,73.79150390625
252516.179749666,-0.4796142578125,0.0269775390625,0.4683837890625,35.400390625,144.287109375,73.79150390625
252516.179794666,-0.4796142578125,0.0269775390625,0.4683837890625,35.400390625,144.287109375,41.19873046875
252516.196247791,-0.523193359375,0.0269775390625,0.4683837890625,35.400390625,144.287109375,41.19873046875
252516.196283375,-0.523193359375,0.1937255859375,0.4683837890625,35.400390625,144.287109375,41.19873046875
252516.196314291,-0.523193359375,0.1937255859375,0.7396240234375,35.400390625,144.287109375,41.19873046875
252516.20702625,-0.523193359375,0.1937255859375,0.7396240234375,35.400390625,92.34619140625,41.19873046875
252516.212528458,-0.523193359375,0.1937255859375,0.7396240234375,35.400390625,92.34619140625,16.357421875
252516.222005916,-0.58154296875,0.1937255859375,0.7396240234375,35.400390625,92.34619140625,16.357421875
252516.222095541,-0.58154296875,0.35107421875,0.7396240234375,35.400390625,92.34619140625,16.357421875
252516.22214925,-0.58154296875,0.35107421875,0.810302734375,35.400390625,92.34619140625,16.357421875
252516.237075333,-0.58154296875,0.35107421875,0.810302734375,35.400390625,12.02392578125,16.357421875
252516.237149625,-0.58154296875,0.35107421875,0.810302734375,35.400390625,12.02392578125,-2.25830078125
252516.253681333,-0.6138916015625,0.35107421875,0.810302734375,35.400390625,12.02392578125,-2.25830078125
252516.253785333,-0.6138916015625,0.232421875,0.810302734375,35.400390625,12.02392578125,-2.25830078125
252516.253846583,-0.6138916015625,0.232421875,0.6107177734375,35.400390625,12.02392578125,-2.25830078125
252516.268831458,-0.6138916015625,0.232421875,0.6107177734375,35.400390625,-57.7392578125,-2.25830078125
252516.269090208,-0.6138916015625,0.232421875,0.6107177734375,35.400390625,-57.7392578125,-17.39501953125
252516.284379333,-0.6368408203125,0.232421875,0.6107177734375,35.400390625,-57.7392578125,-17.39501953125
252516.284512958,-0.6368408203125,0.1300048828125,0.6107177734375,35.400390625,-57.7392578125,-17.39501953125
252516.284587333,-0.6368408203125,0.1300048828125,0.3721923828125,35.400390625,-57.7392578125,-17.39501953125
252516.297038416,-0.6368408203125,0.1300048828125,0.3721923828125,35.400390625,-99.12109375,-17.39501953125
252516.297160208,-0.6368408203125,0.1300048828125,0.3721923828125,35.400390625,-99.12109375,-35.15625
252516.313933958,-0.5980224609375,0.1300048828125,0.3721923828125,35.400390625,-99.12109375,-35.15625
252516.314001041,-0.5980224609375,0.2430419921875,0.3721923828125,35.400390625,-99.12109375,-35.15625
252516.31406925,-0.5980224609375,0.2430419921875,0.188720703125,35.400390625,-99.12109375,-35.15625
252516.331188333,-0.5980224609375,0.2430419921875,0.188720703125,35.400390625,-135.8642578125,-35.15625
252516.33126975,-0.5980224609375,0.2430419921875,0.188720703125,35.400390625,-135.8642578125,-53.64990234375
252516.341817708,-0.5516357421875,0.2430419921875,0.188720703125,35.400390625,-135.8642578125,-53.64990234375
252516.3477535,-0.5516357421875,0.2490234375,0.188720703125,35.400390625,-135.8642578125,-53.64990234375
252516.347871083,-0.5516357421875,0.2490234375,0.1993408203125,35.400390625,-135.8642578125,-53.64990234375
252516.364864458,-0.5516357421875,0.2490234375,0.1993408203125,35.400390625,-157.04345703125,-53.64990234375
252516.3729675,-0.5516357421875,0.2490234375,0.1993408203125,35.400390625,-157.04345703125,-65.91796875
252516.381585958,-0.4581298828125,0.2490234375,0.1993408203125,35.400390625,-157.04345703125,-65.91796875
252516.381680041,-0.4581298828125,0.261962890625,0.1993408203125,35.400390625,-157.04345703125,-65.91796875
252516.388114208,-0.4581298828125,0.261962890625,0.1993408203125,35.400390625,-185.11962890625,-65.91796875
252516.388296,-0.4581298828125,0.261962890625,0.1993408203125,35.400390625,-185.11962890625,-82.275390625
252516.41714975,-0.5023193359375,0.261962890625,0.1993408203125,35.400390625,-185.11962890625,-82.275390625
252516.417348291,-0.5023193359375,0.2640380859375,0.1993408203125,35.400390625,-185.11962890625,-82.275390625
252516.418410458,-0.5023193359375,0.2640380859375,-0.2633056640625,35.400390625,-185.11962890625,-82.275390625
252516.418579083,-0.5023193359375,0.2640380859375,-0.2633056640625,-43.701171875,-185.11962890625,-82.275390625
252516.447278791,-0.3294677734375,0.2640380859375,-0.2633056640625,-43.701171875,-185.11962890625,-82.275390625
252516.447466708,-0.3294677734375,0.4954833984375,-0.2633056640625,-43.701171875,-185.11962890625,-82.275390625
252516.448329875,-0.3294677734375,0.4954833984375,-0.1756591796875,-43.701171875,-185.11962890625,-82.275390625
252516.448532875,-0.3294677734375,0.4954833984375,-0.1756591796875,-9.46044921875,-185.11962890625,-82.275390625
252516.477180291,-0.173095703125,0.4954833984375,-0.1756591796875,-9.46044921875,-185.11962890625,-82.275390625
252516.477370333,-0.173095703125,0.619140625,-0.1756591796875,-9.46044921875,-185.11962890625,-82.275390625
252516.478047541,-0.173095703125,0.619140625,-0.587890625,-9.46044921875,-185.11962890625,-82.275390625
252516.478224708,-0.173095703125,0.619140625,-0.587890625,70.4345703125,-185.11962890625,-82.275390625
252516.507795166,-0.1251220703125,0.619140625,-0.587890625,70.4345703125,-185.11962890625,-82.275390625
252516.507991458,-0.1251220703125,0.5186767578125,-0.587890625,70.4345703125,-185.11962890625,-82.275390625
252516.515336916,-0.1251220703125,0.5186767578125,-0.7862548828125,70.4345703125,-185.11962890625,-82.275390625
252516.515433833,-0.1251220703125,0.5186767578125,-0.7862548828125,16.54052734375,-185.11962890625,-82.275390625
252516.522232625,0.0272216796875,0.5186767578125,-0.7862548828125,16.54052734375,-185.11962890625,-82.275390625
252516.522419416,0.0272216796875,0.7203369140625,-0.7862548828125,16.54052734375,-185.11962890625,-82.275390625
252516.52286725,0.0272216796875,0.7203369140625,-0.8017578125,16.54052734375,-185.11962890625,-82.275390625
252516.537915875,0.0272216796875,0.7203369140625,-0.8017578125,16.54052734375,-188.29345703125,-82.275390625
252516.538122208,0.0272216796875,0.7203369140625,-0.8017578125,16.54052734375,-188.29345703125,-128.2958984375
252516.552162333,0.275390625,0.7203369140625,-0.8017578125,16.54052734375,-188.29345703125,-128.2958984375
252516.552341875,0.275390625,0.6680908203125,-0.8017578125,16.54052734375,-188.29345703125,-128.2958984375
252516.554727958,0.275390625,0.6680908203125,-0.9464111328125,16.54052734375,-188.29345703125,-128.2958984375
252516.567688916,0.275390625,0.6680908203125,-0.9464111328125,16.54052734375,-182.18994140625,-128.2958984375
252516.567837541,0.275390625,0.6680908203125,-0.9464111328125,16.54052734375,-182.18994140625,-126.953125
252516.582279166,0.3701171875,0.6680908203125,-0.9464111328125,16.54052734375,-182.18994140625,-126.953125
252516.582437333,0.3701171875,0.5562744140625,-0.9464111328125,16.54052734375,-182.18994140625,-126.953125
252516.597998041,0.3701171875,0.5562744140625,-1.031982421875,16.54052734375,-182.18994140625,-126.953125
252516.598083791,0.3701171875,0.5562744140625,-1.031982421875,16.54052734375,-166.748046875,-126.953125
252516.598158666,0.3701171875,0.5562744140625,-1.031982421875,16.54052734375,-166.748046875,-138.00048828125
252516.614868875,0.462158203125,0.5562744140625,-1.031982421875,16.54052734375,-166.748046875,-138.00048828125
252516.614966291,0.462158203125,0.987548828125,-1.031982421875,16.54052734375,-166.748046875,-138.00048828125
252516.615054708,0.462158203125,0.987548828125,-0.730224609375,16.54052734375,-166.748046875,-138.00048828125
252516.631433,0.462158203125,0.987548828125,-0.730224609375,16.54052734375,-156.3720703125,-138.00048828125
252516.631530083,0.462158203125,0.987548828125,-0.730224609375,16.54052734375,-156.3720703125,-112.85400390625
252516.648173583,0.52685546875,0.987548828125,-0.730224609375,16.54052734375,-156.3720703125,-112.85400390625
252516.648268875,0.52685546875,0.6763916015625,-0.730224609375,16.54052734375,-156.3720703125,-112.85400390625
252516.648356,0.52685546875,0.6763916015625,-0.70263671875,16.54052734375,-156.3720703125,-112.85400390625
252516.657705208,0.52685546875,0.6763916015625,-0.70263671875,16.54052734375,-158.87451171875,-112.85400390625
252516.657880291,0.52685546875,0.6763916015625,-0.70263671875,16.54052734375,-158.87451171875,-106.87255859375
252516.671995333,0.7071533203125,0.6763916015625,-0.70263671875,16.54052734375,-158.87451171875,-106.87255859375
252516.672178,0.7071533203125,0.45947265625,-0.70263671875,16.54052734375,-158.87451171875,-106.87255859375
252516.673129291,0.7071533203125,0.45947265625,-0.947998046875,16.54052734375,-158.87451171875,-106.87255859375
252516.687419708,0.7071533203125,0.45947265625,-0.947998046875,16.54052734375,-156.06689453125,-106.87255859375
252516.687624708,0.7071533203125,0.45947265625,-0.947998046875,16.54052734375,-156.06689453125,-131.103515625
252516.702107458,0.7696533203125,0.45947265625,-0.947998046875,16.54052734375,-156.06689453125,-131.103515625
252516.702258041,0.7696533203125,0.962646484375,-0.947998046875,16.54052734375,-156.06689453125,-131.103515625
252516.702841375,0.7696533203125,0.962646484375,-0.6607666015625,16.54052734375,-156.06689453125,-131.103515625
252516.717718083,0.7696533203125,0.962646484375,-0.6607666015625,16.54052734375,-140.869140625,-131.103515625
252516.717883041,0.7696533203125,0.962646484375,-0.6607666015625,16.54052734375,-140.869140625,-112.12158203125
252516.731826291,0.8443603515625,0.962646484375,-0.6607666015625,16.54052734375,-140.869140625,-112.12158203125
252516.731968041,0.8443603515625,0.7357177734375,-0.6607666015625,16.54052734375,-140.869140625,-112.12158203125
252516.732726125,0.8443603515625,0.7357177734375,-0.7041015625,16.54052734375,-140.869140625,-112.12158203125
252516.747926541,0.8443603515625,0.7357177734375,-0.7041015625,16.54052734375,-130.31005859375,-112.12158203125
252516.748006625,0.8443603515625,0.7357177734375,-0.7041015625,16.54052734375,-130.31005859375,-100.5859375
252516.764728208,0.8685302734375,0.7357177734375,-0.7041015625,16.54052734375,-130.31005859375,-100.5859375
252516.764806166,0.8685302734375,0.54052734375,-0.7041015625,16.54052734375,-130.31005859375,-100.5859375
252516.764880958,0.8685302734375,0.54052734375,-0.7169189453125,16.54052734375,-130.31005859375,-100.5859375
252516.781634166,0.8685302734375,0.54052734375,-0.7169189453125,16.54052734375,-124.81689453125,-100.5859375
252516.781733458,0.8685302734375,0.54052734375,-0.7169189453125,16.54052734375,-124.81689453125,-106.01806640625
252516.79233925,0.859619140625,0.54052734375,-0.7169189453125,16.54052734375,-124.81689453125,-106.01806640625
252516.798036416,0.859619140625,0.6708984375,-0.7169189453125,16.54052734375,-124.81689453125,-106.01806640625
252516.798236875,0.859619140625,0.6708984375,-0.7264404296875,16.54052734375,-124.81689453125,-106.01806640625
252516.806955291,0.859619140625,0.6708984375,-0.7264404296875,16.54052734375,-124.0234375,-106.01806640625
252516.822020875,0.859619140625,0.6708984375,-0.7264404296875,16.54052734375,-124.0234375,-102.5390625
252516.822224416,0.8958740234375,0.6708984375,-0.7264404296875,16.54052734375,-124.0234375,-102.5390625
252516.823976666,0.8958740234375,0.7496337890625,-0.7264404296875,16.54052734375,-124.0234375,-102.5390625
252516.824141916,0.8958740234375,0.7496337890625,-0.604736328125,16.54052734375,-124.0234375,-102.5390625
252516.837390208,0.8958740234375,0.7496337890625,-0.604736328125,16.54052734375,-111.51123046875,-102.5390625
252516.837578416,0.8958740234375,0.7496337890625,-0.604736328125,16.54052734375,-111.51123046875,-85.63232421875
252516.868402083,0.872802734375,0.7496337890625,-0.604736328125,16.54052734375,-111.51123046875,-85.63232421875
252516.868634541,0.872802734375,0.6456298828125,-0.604736328125,16.54052734375,-111.51123046875,-85.63232421875
252516.868760208,0.872802734375,0.6456298828125,-0.6328125,16.54052734375,-111.51123046875,-85.63232421875
252516.883198166,0.872802734375,0.6456298828125,-0.6328125,16.54052734375,-95.76416015625,-85.63232421875
252516.886941916,0.872802734375,0.6456298828125,-0.6328125,16.54052734375,-95.76416015625,-69.82421875
252516.912313041,0.8563232421875,0.6456298828125,-0.6328125,16.54052734375,-95.76416015625,-69.82421875
252516.9165275,0.8563232421875,0.60205078125,-0.6328125,16.54052734375,-95.76416015625,-69.82421875
252516.916814708,0.8563232421875,0.60205078125,-0.5108642578125,16.54052734375,-95.76416015625,-69.82421875
252516.916904,0.8563232421875,0.60205078125,-0.5108642578125,15.0146484375,-95.76416015625,-69.82421875
252516.947867916,0.9368896484375,0.60205078125,-0.5108642578125,15.0146484375,-95.76416015625,-69.82421875
252516.947949375,0.9368896484375,0.5472412109375,-0.5108642578125,15.0146484375,-95.76416015625,-69.82421875
252516.948019708,0.9368896484375,0.5472412109375,-0.4796142578125,15.0146484375,-95.76416015625,-69.82421875
252516.948089833,0.9368896484375,0.5472412109375,-0.4796142578125,11.65771484375,-95.76416015625,-69.82421875
252516.973785,0.943359375,0.5472412109375,-0.4796142578125,11.65771484375,-95.76416015625,-69.82421875
252516.9739645,0.943359375,0.53955078125,-0.4796142578125,11.65771484375,-95.76416015625,-69.82421875
252516.980929875,0.943359375,0.53955078125,-0.4505615234375,11.65771484375,-95.76416015625,-69.82421875
252516.981011458,0.943359375,0.53955078125,-0.4505615234375,12.8173828125,-95.76416015625,-69.82421875
252517.002071541,0.875732421875,0.53955078125,-0.4505615234375,12.8173828125,-95.76416015625,-69.82421875
252517.002241625,0.875732421875,0.48681640625,-0.4505615234375,12.8173828125,-95.76416015625,-69.82421875
252517.003199375,0.875732421875,0.48681640625,-0.3985595703125,12.8173828125,-95.76416015625,-69.82421875
252517.003344791,0.875732421875,0.48681640625,-0.3985595703125,9.3994140625,-95.76416015625,-69.82421875
252517.047226041,0.8695068359375,0.48681640625,-0.3985595703125,9.3994140625,-95.76416015625,-69.82421875
252517.051203375,0.8695068359375,0.5076904296875,-0.3985595703125,9.3994140625,-95.76416015625,-69.82421875
252517.051343125,0.8695068359375,0.5076904296875,-0.412841796875,9.3994140625,-95.76416015625,-69.82421875
252517.05143425,0.8695068359375,0.5076904296875,-0.412841796875,-15.80810546875,-95.76416015625,-69.82421875
252517.09265175,0.88330078125,0.5076904296875,-0.412841796875,-15.80810546875,-95.76416015625,-69.82421875
252517.092777666,0.88330078125,0.577880859375,-0.412841796875,-15.80810546875,-95.76416015625,-69.82421875
252517.094697541,0.88330078125,0.577880859375,-0.3837890625,-15.80810546875,-95.76416015625,-69.82421875
252517.094850458,0.88330078125,0.577880859375,-0.3837890625,-15.80810546875,-33.63037109375,-69.82421875
252517.108781833,0.899169921875,0.577880859375,-0.3837890625,-15.80810546875,-33.63037109375,-69.82421875
252517.108969541,0.899169921875,0.46484375,-0.3837890625,-15.80810546875,-33.63037109375,-69.82421875
252517.109073416,0.899169921875,0.46484375,-0.3321533203125,-15.80810546875,-33.63037109375,-69.82421875
252517.122681291,0.899169921875,0.46484375,-0.3321533203125,-15.80810546875,-10.3759765625,-69.82421875
252517.122870041,0.899169921875,0.46484375,-0.3321533203125,-15.80810546875,-10.3759765625,-6.4697265625
252517.152138458,0.919189453125,0.46484375,-0.3321533203125,-15.80810546875,-10.3759765625,-6.4697265625
252517.152288958,0.919189453125,0.437744140625,-0.3321533203125,-15.80810546875,-10.3759765625,-6.4697265625
252517.15289925,0.919189453125,0.437744140625,-0.346923828125,-15.80810546875,-10.3759765625,-6.4697265625
252517.153044916,0.919189453125,0.437744140625,-0.346923828125,-8.72802734375,-10.3759765625,-6.4697265625
252517.167556333,0.866455078125,0.437744140625,-0.346923828125,-8.72802734375,-10.3759765625,-6.4697265625
252517.167698541,0.866455078125,0.4425048828125,-0.346923828125,-8.72802734375,-10.3759765625,-6.4697265625
252517.168559625,0.866455078125,0.4425048828125,-0.4024658203125,-8.72802734375,-10.3759765625,-6.4697265625
252517.182590291,0.866455078125,0.4425048828125,-0.4024658203125,-8.72802734375,3.5400390625,-6.4697265625
252517.182746541,0.866455078125,0.4425048828125,-0.4024658203125,-8.72802734375,3.5400390625,8.36181640625
252517.197566541,0.8411865234375,0.4425048828125,-0.4024658203125,-8.72802734375,3.5400390625,8.36181640625
252517.197643041,0.8411865234375,0.52490234375,-0.4024658203125,-8.72802734375,3.5400390625,8.36181640625
252517.198252291,0.8411865234375,0.52490234375,-0.4561767578125,-8.72802734375,3.5400390625,8.36181640625
252517.21430425,0.8411865234375,0.52490234375,-0.4561767578125,-8.72802734375,19.59228515625,8.36181640625
252517.214376416,0.8411865234375,0.52490234375,-0.4561767578125,-8.72802734375,19.59228515625,18.98193359375
252517.247676666,0.88427734375,0.52490234375,-0.4561767578125,-8.72802734375,19.59228515625,18.98193359375
252517.247743333,0.88427734375,0.5865478515625,-0.4561767578125,-8.72802734375,19.59228515625,18.98193359375
252517.247798583,0.88427734375,0.5865478515625,-0.5311279296875,-8.72802734375,19.59228515625,18.98193359375
252517.24785175,0.88427734375,0.5865478515625,-0.5311279296875,-28.6865234375,19.59228515625,18.98193359375
252517.272592041,0.9097900390625,0.5865478515625,-0.5311279296875,-28.6865234375,19.59228515625,18.98193359375
252517.27271075,0.9097900390625,0.5892333984375,-0.5311279296875,-28.6865234375,19.59228515625,18.98193359375
252517.280455208,0.9097900390625,0.5892333984375,-0.6553955078125,-28.6865234375,19.59228515625,18.98193359375
252517.280518208,0.9097900390625,0.5892333984375,-0.6553955078125,-22.15576171875,19.59228515625,18.98193359375
252517.287665291,0.947265625,0.5892333984375,-0.6553955078125,-22.15576171875,19.59228515625,18.98193359375
252517.287824208,0.947265625,0.6448974609375,-0.6553955078125,-22.15576171875,19.59228515625,18.98193359375
252517.288100541,0.947265625,0.6448974609375,-0.6292724609375,-22.15576171875,19.59228515625,18.98193359375
252517.302776875,0.947265625,0.6448974609375,-0.6292724609375,-22.15576171875,93.017578125,18.98193359375
252517.302902833,0.947265625,0.6448974609375,-0.6292724609375,-22.15576171875,93.017578125,68.7255859375
252517.317591291,0.960693359375,0.6448974609375,-0.6292724609375,-22.15576171875,93.017578125,68.7255859375
252517.317732458,0.960693359375,0.652099609375,-0.6292724609375,-22.15576171875,93.017578125,68.7255859375
252517.317983375,0.960693359375,0.652099609375,-0.73779296875,-22.15576171875,93.017578125,68.7255859375
252517.332384833,0.960693359375,0.652099609375,-0.73779296875,-22.15576171875,107.666015625,68.7255859375
252517.332554083,0.960693359375,0.652099609375,-0.73779296875,-22.15576171875,107.666015625,79.9560546875
252517.347567083,0.982666015625,0.652099609375,-0.73779296875,-22.15576171875,107.666015625,79.9560546875
252517.347649833,0.982666015625,0.728515625,-0.73779296875,-22.15576171875,107.666015625,79.9560546875
252517.348298708,0.982666015625,0.728515625,-0.844482421875,-22.15576171875,107.666015625,79.9560546875
NEW_REP,,,,,,
252517.364991125,0.982666015625,0.728515625,-0.844482421875,-22.15576171875,132.8125,79.9560546875
252517.365072,0.982666015625,0.728515625,-0.844482421875,-22.15576171875,132.8125,94.6044921875
252517.40883725,1.00390625,0.728515625,-0.844482421875,-22.15576171875,132.8125,94.6044921875
252517.409071541,1.00390625,0.80419921875,-0.844482421875,-22.15576171875,132.8125,94.6044921875
252517.409199958,1.00390625,0.80419921875,-0.84765625,-22.15576171875,132.8125,94.6044921875
252517.437508208,1.00390625,0.80419921875,-0.84765625,-22.15576171875,156.18896484375,94.6044921875
252517.437763791,1.00390625,0.80419921875,-0.84765625,-22.15576171875,156.18896484375,107.421875
252517.438956166,0.9351806640625,0.80419921875,-0.84765625,-22.15576171875,156.18896484375,107.421875
252517.43917375,0.9351806640625,0.687255859375,-0.84765625,-22.15576171875,156.18896484375,107.421875
252517.465076208,0.9351806640625,0.687255859375,-0.84765625,-22.15576171875,194.580078125,107.421875
252517.465161125,0.9351806640625,0.687255859375,-0.84765625,-22.15576171875,194.580078125,118.65234375
252517.46828825,0.820068359375,0.687255859375,-0.84765625,-22.15576171875,194.580078125,118.65234375
252517.46850175,0.820068359375,0.7169189453125,-0.84765625,-22.15576171875,194.580078125,118.65234375
252517.468593791,0.820068359375,0.7169189453125,-1.0013427734375,-22.15576171875,194.580078125,118.65234375
252517.497568333,0.820068359375,0.7169189453125,-1.0013427734375,-22.15576171875,203.55224609375,118.65234375
252517.498084083,0.820068359375,0.7169189453125,-1.0013427734375,-22.15576171875,203.55224609375,117.919921875
252517.512876416,0.7261962890625,0.7169189453125,-1.0013427734375,-22.15576171875,203.55224609375,117.919921875
252517.513045291,0.7261962890625,0.601318359375,-1.0013427734375,-22.15576171875,203.55224609375,117.919921875
252517.513763,0.7261962890625,0.601318359375,-1.0013427734375,-22.15576171875,209.53369140625,117.919921875
252517.513971041,0.7261962890625,0.601318359375,-1.0013427734375,-22.15576171875,209.53369140625,119.5068359375
252517.573351708,0.572509765625,0.601318359375,-1.0013427734375,-22.15576171875,209.53369140625,119.5068359375
252517.573472,0.572509765625,0.5477294921875,-1.0013427734375,-22.15576171875,209.53369140625,119.5068359375
252517.573728958,0.572509765625,0.5477294921875,-0.95654296875,-22.15576171875,209.53369140625,119.5068359375
252517.573831,0.572509765625,0.5477294921875,-0.95654296875,-11.65771484375,209.53369140625,119.5068359375
252517.598165208,0.4537353515625,0.5477294921875,-0.95654296875,-11.65771484375,209.53369140625,119.5068359375
252517.598247833,0.4537353515625,0.6192626953125,-0.95654296875,-11.65771484375,209.53369140625,119.5068359375
252517.59832025,0.4537353515625,0.6192626953125,-0.899169921875,-11.65771484375,209.53369140625,119.5068359375
252517.602350583,0.4537353515625,0.6192626953125,-0.899169921875,-11.65771484375,217.83447265625,119.5068359375
252517.602489416,0.4537353515625,0.6192626953125,-0.899169921875,-11.65771484375,217.83447265625,112.6708984375
252517.616653833,0.2684326171875,0.6192626953125,-0.899169921875,-11.65771484375,217.83447265625,112.6708984375
252517.618586625,0.2684326171875,0.4581298828125,-0.899169921875,-11.65771484375,217.83447265625,112.6708984375
252517.618741041,0.2684326171875,0.4581298828125,-0.734130859375,-11.65771484375,217.83447265625,112.6708984375
252517.63440575,0.2684326171875,0.4581298828125,-0.734130859375,-11.65771484375,223.6328125,112.6708984375
252517.63455275,0.2684326171875,0.4581298828125,-0.734130859375,-11.65771484375,223.6328125,108.09326171875
252517.648145958,0.1240234375,0.4581298828125,-0.734130859375,-11.65771484375,223.6328125,108.09326171875
252517.6483255,0.1240234375,0.432861328125,-0.734130859375,-11.65771484375,223.6328125,108.09326171875
252517.651443041,0.1240234375,0.432861328125,-0.6241455078125,-11.65771484375,223.6328125,108.09326171875
252517.664568583,0.1240234375,0.432861328125,-0.6241455078125,-11.65771484375,216.00341796875,108.09326171875
252517.664636458,0.1240234375,0.432861328125,-0.6241455078125,-11.65771484375,216.00341796875,101.86767578125
252517.737543541,-0.03369140625,0.432861328125,-0.6241455078125,-11.65771484375,216.00341796875,101.86767578125
252517.737881916,-0.03369140625,0.4373779296875,-0.6241455078125,-11.65771484375,216.00341796875,101.86767578125
252517.738051916,-0.03369140625,0.4373779296875,-0.821044921875,-11.65771484375,216.00341796875,101.86767578125
252517.755091125,-0.03369140625,0.4373779296875,-0.821044921875,-11.65771484375,212.7685546875,101.86767578125
252517.75519325,-0.03369140625,0.4373779296875,-0.821044921875,-11.65771484375,212.7685546875,94.90966796875
252517.78194725,-0.3345947265625,0.4373779296875,-0.821044921875,-11.65771484375,212.7685546875,94.90966796875
252517.782112166,-0.3345947265625,0.3251953125,-0.821044921875,-11.65771484375,212.7685546875,94.90966796875
252517.782868333,-0.3345947265625,0.3251953125,-0.3699951171875,-11.65771484375,212.7685546875,94.90966796875
252517.783016458,-0.3345947265625,0.3251953125,-0.3699951171875,-10.8642578125,212.7685546875,94.90966796875
252517.798458541,-0.447998046875,0.3251953125,-0.3699951171875,-10.8642578125,212.7685546875,94.90966796875
252517.7985435,-0.447998046875,0.239990234375,-0.3699951171875,-10.8642578125,212.7685546875,94.90966796875
252517.798617541,-0.447998046875,0.239990234375,0.0234375,-10.8642578125,212.7685546875,94.90966796875
252517.814622958,-0.447998046875,0.239990234375,0.0234375,-10.8642578125,184.814453125,94.90966796875
252517.814703166,-0.447998046875,0.239990234375,0.0234375,-10.8642578125,184.814453125,71.47216796875
252517.831584833,-0.48388671875,0.239990234375,0.0234375,-10.8642578125,184.814453125,71.47216796875
252517.831661291,-0.48388671875,0.2833251953125,0.0234375,-10.8642578125,184.814453125,71.47216796875
252517.83174825,-0.48388671875,0.2833251953125,0.2977294921875,-10.8642578125,184.814453125,71.47216796875
252517.842378375,-0.48388671875,0.2833251953125,0.2977294921875,-10.8642578125,159.60693359375,71.47216796875
252517.847968583,-0.48388671875,0.2833251953125,0.2977294921875,-10.8642578125,159.60693359375,62.92724609375
252517.857501541,-0.58251953125,0.2833251953125,0.2977294921875,-10.8642578125,159.60693359375,62.92724609375
252517.857696583,-0.58251953125,0.134033203125,0.2977294921875,-10.8642578125,159.60693359375,62.92724609375
252517.864612375,-0.58251953125,0.134033203125,0.634033203125,-10.8642578125,159.60693359375,62.92724609375
252517.872160875,-0.58251953125,0.134033203125,0.634033203125,-10.8642578125,104.6142578125,62.92724609375
252517.872303541,-0.58251953125,0.134033203125,0.634033203125,-10.8642578125,104.6142578125,40.6494140625
252517.887779916,-0.6151123046875,0.134033203125,0.634033203125,-10.8642578125,104.6142578125,40.6494140625
252517.888182666,-0.6151123046875,0.1107177734375,0.634033203125,-10.8642578125,104.6142578125,40.6494140625
252517.888289791,-0.6151123046875,0.1107177734375,0.6866455078125,-10.8642578125,104.6142578125,40.6494140625
252517.902191791,-0.6151123046875,0.1107177734375,0.6866455078125,-10.8642578125,53.22265625,40.6494140625
252517.902354958,-0.6151123046875,0.1107177734375,0.6866455078125,-10.8642578125,53.22265625,22.705078125
252517.918799458,-0.6796875,0.1107177734375,0.6866455078125,-10.8642578125,53.22265625,22.705078125
252517.919034166,-0.6796875,0.083251953125,0.6866455078125,-10.8642578125,53.22265625,22.705078125
252517.919105291,-0.6796875,0.083251953125,0.6011962890625,-10.8642578125,53.22265625,22.705078125
252517.932468375,-0.6796875,0.083251953125,0.6011962890625,-10.8642578125,-15.869140625,22.705078125
252517.935371875,-0.6796875,0.083251953125,0.6011962890625,-10.8642578125,-15.869140625,-1.46484375
252517.948529625,-0.681396484375,0.083251953125,0.6011962890625,-10.8642578125,-15.869140625,-1.46484375
252517.948754083,-0.681396484375,0.0965576171875,0.6011962890625,-10.8642578125,-15.869140625,-1.46484375
252517.948850791,-0.681396484375,0.0965576171875,0.4693603515625,-10.8642578125,-15.869140625,-1.46484375
252517.964586291,-0.681396484375,0.0965576171875,0.4693603515625,-10.8642578125,-76.416015625,-1.46484375
252517.964667333,-0.681396484375,0.0965576171875,0.4693603515625,-10.8642578125,-76.416015625,-23.8037109375
252517.981304875,-0.6654052734375,0.0965576171875,0.4693603515625,-10.8642578125,-76.416015625,-23.8037109375
252517.98138725,-0.6654052734375,0.124267578125,0.4693603515625,-10.8642578125,-76.416015625,-23.8037109375
252517.981459916,-0.6654052734375,0.124267578125,0.380859375,-10.8642578125,-76.416015625,-23.8037109375
252518.023108375,-0.6654052734375,0.124267578125,0.380859375,-10.8642578125,-112.85400390625,-23.8037109375
252518.023368208,-0.6654052734375,0.124267578125,0.380859375,-10.8642578125,-112.85400390625,-40.1611328125
252518.023464583,-0.5941162109375,0.124267578125,0.380859375,-10.8642578125,-112.85400390625,-40.1611328125
252518.052002166,-0.5941162109375,0.124267578125,0.186767578125,-10.8642578125,-112.85400390625,-40.1611328125
252518.052153,-0.5941162109375,0.124267578125,0.186767578125,11.5966796875,-112.85400390625,-40.1611328125
252518.052649208,-0.5941162109375,0.124267578125,0.186767578125,11.5966796875,-147.15576171875,-40.1611328125
252518.067286833,-0.482177734375,0.124267578125,0.186767578125,11.5966796875,-147.15576171875,-40.1611328125
252518.067470458,-0.482177734375,0.124267578125,-0.09814453125,11.5966796875,-147.15576171875,-40.1611328125
252518.067570875,-0.482177734375,0.124267578125,-0.09814453125,46.5087890625,-147.15576171875,-40.1611328125
252518.067935291,-0.482177734375,0.124267578125,-0.09814453125,46.5087890625,-170.166015625,-40.1611328125
252518.0970325,-0.4251708984375,0.124267578125,-0.09814453125,46.5087890625,-170.166015625,-40.1611328125
252518.097160791,-0.4251708984375,0.2957763671875,-0.09814453125,46.5087890625,-170.166015625,-40.1611328125
252518.097727583,-0.4251708984375,0.2957763671875,-0.2276611328125,46.5087890625,-170.166015625,-40.1611328125
252518.11203925,-0.4251708984375,0.2957763671875,-0.2276611328125,46.5087890625,-184.50927734375,-40.1611328125
252518.112260666,-0.4251708984375,0.2957763671875,-0.2276611328125,46.5087890625,-184.50927734375,-100.15869140625
252518.156569291,-0.269775390625,0.2957763671875,-0.2276611328125,46.5087890625,-184.50927734375,-100.15869140625
252518.156755208,-0.269775390625,0.6690673828125,-0.2276611328125,46.5087890625,-184.50927734375,-100.15869140625
252518.157356625,-0.269775390625,0.6690673828125,-0.5528564453125,46.5087890625,-184.50927734375,-100.15869140625
252518.157531333,-0.269775390625,0.6690673828125,-0.5528564453125,92.4072265625,-184.50927734375,-100.15869140625
252518.181744125,-0.119873046875,0.6690673828125,-0.5528564453125,92.4072265625,-184.50927734375,-100.15869140625
252518.18183325,-0.119873046875,0.3314208984375,-0.5528564453125,92.4072265625,-184.50927734375,-100.15869140625
252518.181909791,-0.119873046875,0.3314208984375,-0.4918212890625,92.4072265625,-184.50927734375,-100.15869140625
252518.187123166,-0.119873046875,0.3314208984375,-0.4918212890625,92.4072265625,-187.80517578125,-100.15869140625
252518.187285916,-0.119873046875,0.3314208984375,-0.4918212890625,92.4072265625,-187.80517578125,-124.51171875
252518.202183541,-0.0029296875,0.3314208984375,-0.4918212890625,92.4072265625,-187.80517578125,-124.51171875
252518.202387708,-0.0029296875,1.130615234375,-0.4918212890625,92.4072265625,-187.80517578125,-124.51171875
252518.202467458,-0.0029296875,1.130615234375,-0.8575439453125,92.4072265625,-187.80517578125,-124.51171875
252518.2169765,-0.0029296875,1.130615234375,-0.8575439453125,92.4072265625,-169.12841796875,-124.51171875
252518.21714975,-0.0029296875,1.130615234375,-0.8575439453125,92.4072265625,-169.12841796875,-98.93798828125
252518.232173583,0.1256103515625,1.130615234375,-0.8575439453125,92.4072265625,-169.12841796875,-98.93798828125
252518.232255291,0.1256103515625,0.3714599609375,-0.8575439453125,92.4072265625,-169.12841796875,-98.93798828125
252518.232327833,0.1256103515625,0.3714599609375,-0.905029296875,92.4072265625,-169.12841796875,-98.93798828125
252518.261728083,0.1256103515625,0.3714599609375,-0.905029296875,92.4072265625,-167.96875,-98.93798828125
252518.263356125,0.1256103515625,0.3714599609375,-0.905029296875,92.4072265625,-167.96875,-125.18310546875
252518.26350175,0.2662353515625,0.3714599609375,-0.905029296875,92.4072265625,-167.96875,-125.18310546875
252518.263618291,0.2662353515625,0.7142333984375,-0.905029296875,92.4072265625,-167.96875,-125.18310546875
252518.280591,0.2662353515625,0.7142333984375,-0.905029296875,92.4072265625,-164.55078125,-125.18310546875
252518.280650416,0.2662353515625,0.7142333984375,-0.905029296875,92.4072265625,-164.55078125,-125.244140625
252518.32199325,0.36865234375,0.7142333984375,-0.905029296875,92.4072265625,-164.55078125,-125.244140625
252518.322194375,0.36865234375,1.015869140625,-0.905029296875,92.4072265625,-164.55078125,-125.244140625
252518.3222615,0.36865234375,1.015869140625,-0.760498046875,92.4072265625,-164.55078125,-125.244140625
252518.337004291,0.36865234375,1.015869140625,-0.760498046875,92.4072265625,-160.21728515625,-125.244140625
252518.337183916,0.36865234375,1.015869140625,-0.760498046875,92.4072265625,-160.21728515625,-104.8583984375
252518.366934791,0.6539306640625,1.015869140625,-0.760498046875,92.4072265625,-160.21728515625,-104.8583984375
252518.367117125,0.6539306640625,0.7269287109375,-0.760498046875,92.4072265625,-160.21728515625,-104.8583984375
252518.367754833,0.6539306640625,0.7269287109375,-0.6727294921875,92.4072265625,-160.21728515625,-104.8583984375
252518.367916708,0.6539306640625,0.7269287109375,-0.6727294921875,-26.9775390625,-160.21728515625,-104.8583984375
252518.381876916,0.7691650390625,0.7269287109375,-0.6727294921875,-26.9775390625,-160.21728515625,-104.8583984375
252518.382017416,0.7691650390625,0.8211669921875,-0.6727294921875,-26.9775390625,-160.21728515625,-104.8583984375
252518.382093625,0.7691650390625,0.8211669921875,-0.5753173828125,-26.9775390625,-160.21728515625,-104.8583984375
252518.397110125,0.7691650390625,0.8211669921875,-0.5753173828125,-26.9775390625,-157.04345703125,-104.8583984375
252518.397158958,0.7691650390625,0.8211669921875,-0.5753173828125,-26.9775390625,-157.04345703125,-127.197265625
252518.413401875,0.920166015625,0.8211669921875,-0.5753173828125,-26.9775390625,-157.04345703125,-127.197265625
252518.413443,0.920166015625,0.472900390625,-0.5753173828125,-26.9775390625,-157.04345703125,-127.197265625
252518.413476791,0.920166015625,0.472900390625,-0.7742919921875,-26.9775390625,-157.04345703125,-127.197265625
252518.429715166,0.920166015625,0.472900390625,-0.7742919921875,-26.9775390625,-162.04833984375,-127.197265625
252518.429753708,0.920166015625,0.472900390625,-0.7742919921875,-26.9775390625,-162.04833984375,-142.4560546875
252518.446500791,1.035888671875,0.472900390625,-0.7742919921875,-26.9775390625,-162.04833984375,-142.4560546875
252518.446544958,1.035888671875,0.7808837890625,-0.7742919921875,-26.9775390625,-162.04833984375,-142.4560546875
252518.446582333,1.035888671875,0.7808837890625,-0.8931884765625,-26.9775390625,-162.04833984375,-142.4560546875
252518.456932791,1.035888671875,0.7808837890625,-0.8931884765625,-26.9775390625,-151.2451171875,-142.4560546875
252518.456972875,1.035888671875,0.7808837890625,-0.8931884765625,-26.9775390625,-151.2451171875,-131.8359375
252518.471988791,0.9906005859375,0.7808837890625,-0.8931884765625,-26.9775390625,-151.2451171875,-131.8359375
252518.472033291,0.9906005859375,0.981201171875,-0.8931884765625,-26.9775390625,-151.2451171875,-131.8359375
252518.487004375,0.9906005859375,0.981201171875,-0.793212890625,-26.9775390625,-151.2451171875,-131.8359375
252518.487047541,0.9906005859375,0.981201171875,-0.793212890625,-26.9775390625,-135.68115234375,-131.8359375
252518.487124666,0.9906005859375,0.981201171875,-0.793212890625,-26.9775390625,-135.68115234375,-83.49609375
252518.50197575,0.90966796875,0.981201171875,-0.793212890625,-26.9775390625,-135.68115234375,-83.49609375
252518.502018208,0.90966796875,0.6727294921875,-0.793212890625,-26.9775390625,-135.68115234375,-83.49609375
252518.503231916,0.90966796875,0.6727294921875,-0.701904296875,-26.9775390625,-135.68115234375,-83.49609375
252518.517712625,0.90966796875,0.6727294921875,-0.701904296875,-26.9775390625,-112.1826171875,-83.49609375
252518.517785208,0.90966796875,0.6727294921875,-0.701904296875,-26.9775390625,-112.1826171875,-72.44873046875
252518.532040291,0.8411865234375,0.6727294921875,-0.701904296875,-26.9775390625,-112.1826171875,-72.44873046875
252518.532081416,0.8411865234375,0.593994140625,-0.701904296875,-26.9775390625,-112.1826171875,-72.44873046875
252518.532161125,0.8411865234375,0.593994140625,-0.5487060546875,-26.9775390625,-112.1826171875,-72.44873046875
252518.547477375,0.8411865234375,0.593994140625,-0.5487060546875,-26.9775390625,-96.0693359375,-72.44873046875
252518.547555125,0.8411865234375,0.593994140625,-0.5487060546875,-26.9775390625,-96.0693359375,-69.9462890625
252518.563348833,0.890869140625,0.593994140625,-0.5487060546875,-26.9775390625,-96.0693359375,-69.9462890625
252518.563454,0.890869140625,0.6312255859375,-0.5487060546875,-26.9775390625,-96.0693359375,-69.9462890625
252518.563512583,0.890869140625,0.6312255859375,-0.458984375,-26.9775390625,-96.0693359375,-69.9462890625
252518.579714166,0.890869140625,0.6312255859375,-0.458984375,-26.9775390625,-92.34619140625,-69.9462890625
252518.5797565,0.890869140625,0.6312255859375,-0.458984375,-26.9775390625,-92.34619140625,-70.98388671875
252518.621893083,0.92626953125,0.6312255859375,-0.458984375,-26.9775390625,-92.34619140625,-70.98388671875
252518.622005833,0.92626953125,0.5870361328125,-0.458984375,-26.9775390625,-92.34619140625,-70.98388671875
252518.622073291,0.92626953125,0.5870361328125,-0.4703369140625,-26.9775390625,-92.34619140625,-70.98388671875
252518.636837916,0.92626953125,0.5870361328125,-0.4703369140625,-26.9775390625,-94.42138671875,-70.98388671875
252518.636935833,0.92626953125,0.5870361328125,-0.4703369140625,-26.9775390625,-94.42138671875,-69.7021484375
252518.680952958,0.9029541015625,0.5870361328125,-0.4703369140625,-26.9775390625,-94.42138671875,-69.7021484375
252518.683538041,0.9029541015625,0.574951171875,-0.4703369140625,-26.9775390625,-94.42138671875,-69.7021484375
252518.683692,0.9029541015625,0.574951171875,-0.468017578125,-26.9775390625,-94.42138671875,-69.7021484375
252518.683775916,0.9029541015625,0.574951171875,-0.468017578125,-3.90625,-94.42138671875,-69.7021484375
252518.6972515,0.880126953125,0.574951171875,-0.468017578125,-3.90625,-94.42138671875,-69.7021484375
252518.697309958,0.880126953125,0.5645751953125,-0.468017578125,-3.90625,-94.42138671875,-69.7021484375
252518.698488125,0.880126953125,0.5645751953125,-0.464111328125,-3.90625,-94.42138671875,-69.7021484375
252518.727078583,0.880126953125,0.5645751953125,-0.464111328125,-3.90625,-41.015625,-69.7021484375
252518.727223416,0.880126953125,0.5645751953125,-0.464111328125,-3.90625,-41.015625,-29.541015625
252518.747731666,0.915283203125,0.5645751953125,-0.464111328125,-3.90625,-41.015625,-29.541015625
252518.747794791,0.915283203125,0.48095703125,-0.464111328125,-3.90625,-41.015625,-29.541015625
252518.747848125,0.915283203125,0.48095703125,-0.4324951171875,-3.90625,-41.015625,-29.541015625
252518.771975833,0.8865966796875,0.48095703125,-0.4324951171875,-3.90625,-41.015625,-29.541015625
252518.772120166,0.8865966796875,0.3988037109375,-0.4324951171875,-3.90625,-41.015625,-29.541015625
252518.787320208,0.8865966796875,0.3988037109375,-0.3699951171875,-3.90625,-41.015625,-29.541015625
252518.787474708,0.8865966796875,0.3988037109375,-0.3699951171875,-33.63037109375,-41.015625,-29.541015625
252518.817254958,0.850830078125,0.3988037109375,-0.3699951171875,-33.63037109375,-41.015625,-29.541015625
252518.817401125,0.850830078125,0.47216796875,-0.3699951171875,-33.63037109375,-41.015625,-29.541015625
252518.821939,0.850830078125,0.47216796875,-0.3699951171875,-43.39599609375,-41.015625,-29.541015625
252518.82200875,0.850830078125,0.47216796875,-0.3699951171875,-43.39599609375,-5.92041015625,-29.541015625
252518.847188,0.8787841796875,0.47216796875,-0.3699951171875,-43.39599609375,-5.92041015625,-29.541015625
252518.847269666,0.8787841796875,0.4637451171875,-0.3699951171875,-43.39599609375,-5.92041015625,-29.541015625
252518.847726958,0.8787841796875,0.4637451171875,-0.2779541015625,-43.39599609375,-5.92041015625,-29.541015625
252518.847785041,0.8787841796875,0.4637451171875,-0.2779541015625,-43.39599609375,-1.03759765625,-29.541015625
252518.863929416,0.9027099609375,0.4637451171875,-0.2779541015625,-43.39599609375,-1.03759765625,-29.541015625
252518.863990791,0.9027099609375,0.3221435546875,-0.2779541015625,-43.39599609375,-1.03759765625,-29.541015625
252518.864044125,0.9027099609375,0.3221435546875,-0.3468017578125,-43.39599609375,-1.03759765625,-29.541015625
252518.880290916,0.9027099609375,0.3221435546875,-0.3468017578125,-43.39599609375,0.79345703125,-29.541015625
252518.880349541,0.9027099609375,0.3221435546875,-0.3468017578125,-43.39599609375,0.79345703125,-0.30517578125
252518.937402041,0.903076171875,0.3221435546875,-0.3468017578125,-43.39599609375,0.79345703125,-0.30517578125
252518.937607291,0.903076171875,0.3936767578125,-0.3468017578125,-43.39599609375,0.79345703125,-0.30517578125
252518.937720375,0.903076171875,0.3936767578125,-0.3382568359375,-43.39599609375,0.79345703125,-0.30517578125
252518.938170208,0.903076171875,0.3936767578125,-0.3382568359375,-43.39599609375,1.46484375,-0.30517578125
252518.9671115,0.8956298828125,0.3936767578125,-0.3382568359375,-43.39599609375,1.46484375,-0.30517578125
252518.967281541,0.8956298828125,0.4813232421875,-0.3382568359375,-43.39599609375,1.46484375,-0.30517578125
252518.968096708,0.8956298828125,0.4813232421875,-0.491943359375,-43.39599609375,1.46484375,-0.30517578125
252518.9682715,0.8956298828125,0.4813232421875,-0.491943359375,23.5595703125,1.46484375,-0.30517578125
252518.981987833,0.908203125,0.4813232421875,-0.491943359375,23.5595703125,1.46484375,-0.30517578125
252518.98220375,0.908203125,0.4822998046875,-0.491943359375,23.5595703125,1.46484375,-0.30517578125
252518.982289416,0.908203125,0.4822998046875,-0.5523681640625,23.5595703125,1.46484375,-0.30517578125
NEW_REP,,,,,,
252518.998056416,0.908203125,0.4822998046875,-0.5523681640625,23.5595703125,55.72509765625,-0.30517578125
252518.99814575,0.908203125,0.4822998046875,-0.5523681640625,23.5595703125,55.72509765625,38.4521484375
252519.014367541,0.890869140625,0.4822998046875,-0.5523681640625,23.5595703125,55.72509765625,38.4521484375
252519.014442291,0.890869140625,0.5521240234375,-0.5523681640625,23.5595703125,55.72509765625,38.4521484375
252519.014504833,0.890869140625,0.5521240234375,-0.566650390625,23.5595703125,55.72509765625,38.4521484375
252519.030911083,0.890869140625,0.5521240234375,-0.566650390625,23.5595703125,71.6552734375,38.4521484375
252519.0309765,0.890869140625,0.5521240234375,-0.566650390625,23.5595703125,71.6552734375,51.57470703125
252519.04757025,0.9107666015625,0.5521240234375,-0.566650390625,23.5595703125,71.6552734375,51.57470703125
252519.047641666,0.9107666015625,0.633056640625,-0.566650390625,23.5595703125,71.6552734375,51.57470703125
252519.047717291,0.9107666015625,0.633056640625,-0.63623046875,23.5595703125,71.6552734375,51.57470703125
252519.057227916,0.9107666015625,0.633056640625,-0.63623046875,23.5595703125,93.68896484375,51.57470703125
252519.057367291,0.9107666015625,0.633056640625,-0.63623046875,23.5595703125,93.68896484375,61.95068359375
252519.072185,0.9295654296875,0.633056640625,-0.63623046875,23.5595703125,93.68896484375,61.95068359375
252519.072330125,0.9295654296875,0.6297607421875,-0.63623046875,23.5595703125,93.68896484375,61.95068359375
252519.0732255,0.9295654296875,0.6297607421875,-0.6812744140625,23.5595703125,93.68896484375,61.95068359375
252519.087265916,0.9295654296875,0.6297607421875,-0.6812744140625,23.5595703125,111.14501953125,61.95068359375
252519.087418833,0.9295654296875,0.6297607421875,-0.6812744140625,23.5595703125,111.14501953125,69.3359375
252519.102137041,0.9697265625,0.6297607421875,-0.6812744140625,23.5595703125,111.14501953125,69.3359375
252519.102310875,0.9697265625,0.62890625,-0.6812744140625,23.5595703125,111.14501953125,69.3359375
252519.102408666,0.9697265625,0.62890625,-0.776611328125,23.5595703125,111.14501953125,69.3359375
252519.117036125,0.9697265625,0.62890625,-0.776611328125,23.5595703125,129.57763671875,69.3359375
252519.117165916,0.9697265625,0.62890625,-0.776611328125,23.5595703125,129.57763671875,81.23779296875
252519.147405333,0.97412109375,0.62890625,-0.776611328125,23.5595703125,129.57763671875,81.23779296875
252519.147543333,0.97412109375,0.7078857421875,-0.776611328125,23.5595703125,129.57763671875,81.23779296875
252519.148086125,0.97412109375,0.7078857421875,-0.8260498046875,23.5595703125,129.57763671875,81.23779296875
252519.162176333,0.97412109375,0.7078857421875,-0.8260498046875,23.5595703125,157.28759765625,81.23779296875
252519.162317916,0.97412109375,0.7078857421875,-0.8260498046875,23.5595703125,157.28759765625,95.15380859375
252519.222361333,0.9033203125,0.7078857421875,-0.8260498046875,23.5595703125,157.28759765625,95.15380859375
252519.222552583,0.9033203125,0.7484130859375,-0.8260498046875,23.5595703125,157.28759765625,95.15380859375
252519.222620666,0.9033203125,0.7484130859375,-0.968017578125,23.5595703125,157.28759765625,95.15380859375
252519.223060625,0.9033203125,0.7484130859375,-0.968017578125,14.70947265625,157.28759765625,95.15380859375
252519.247955458,0.828125,0.7484130859375,-0.968017578125,14.70947265625,157.28759765625,95.15380859375
252519.248019916,0.828125,0.693359375,-0.968017578125,14.70947265625,157.28759765625,95.15380859375
252519.248073916,0.828125,0.693359375,-0.9183349609375,14.70947265625,157.28759765625,95.15380859375
252519.252028125,0.828125,0.693359375,-0.9183349609375,14.70947265625,185.05859375,95.15380859375
252519.252174,0.828125,0.693359375,-0.9183349609375,14.70947265625,185.05859375,111.38916015625
252519.281942208,0.5655517578125,0.693359375,-0.9183349609375,14.70947265625,185.05859375,111.38916015625
252519.282098125,0.5655517578125,0.6644287109375,-0.9183349609375,14.70947265625,185.05859375,111.38916015625
252519.282728916,0.5655517578125,0.6644287109375,-0.8363037109375,14.70947265625,185.05859375,111.38916015625
252519.282854041,0.5655517578125,0.6644287109375,-0.8363037109375,33.935546875,185.05859375,111.38916015625
252519.297620458,0.4757080078125,0.6644287109375,-0.8363037109375,33.935546875,185.05859375,111.38916015625
252519.297681916,0.4757080078125,0.6199951171875,-0.8363037109375,33.935546875,185.05859375,111.38916015625
252519.297735666,0.4757080078125,0.6199951171875,-0.9332275390625,33.935546875,185.05859375,111.38916015625
252519.314173541,0.4757080078125,0.6199951171875,-0.9332275390625,33.935546875,185.05859375,111.38916015625
252519.314236166,0.4757080078125,0.6199951171875,-0.9332275390625,33.935546875,185.05859375,111.99951171875
252519.330749208,0.3990478515625,0.6199951171875,-0.9332275390625,33.935546875,185.05859375,111.99951171875
252519.330815791,0.3990478515625,0.61083984375,-0.9332275390625,33.935546875,185.05859375,111.99951171875
252519.3308745,0.3990478515625,0.61083984375,-1.0694580078125,33.935546875,185.05859375,111.99951171875
252519.347528125,0.3990478515625,0.61083984375,-1.0694580078125,33.935546875,191.40625,111.99951171875
252519.347590666,0.3990478515625,0.61083984375,-1.0694580078125,33.935546875,191.40625,105.77392578125
252519.357191583,0.43408203125,0.61083984375,-1.0694580078125,33.935546875,191.40625,105.77392578125
252519.357384416,0.43408203125,0.6207275390625,-1.0694580078125,33.935546875,191.40625,105.77392578125
252519.357471541,0.43408203125,0.6207275390625,-1.0064697265625,33.935546875,191.40625,105.77392578125
252519.372107916,0.43408203125,0.6207275390625,-1.0064697265625,33.935546875,205.13916015625,105.77392578125
252519.372238791,0.43408203125,0.6207275390625,-1.0064697265625,33.935546875,205.13916015625,109.130859375
252519.387021583,0.2327880859375,0.6207275390625,-1.0064697265625,33.935546875,205.13916015625,109.130859375
252519.387166958,0.2327880859375,0.642578125,-1.0064697265625,33.935546875,205.13916015625,109.130859375
252519.387283833,0.2327880859375,0.642578125,-0.7750244140625,33.935546875,205.13916015625,109.130859375
252519.402107125,0.2327880859375,0.642578125,-0.7750244140625,33.935546875,217.1630859375,109.130859375
252519.402225,0.2327880859375,0.642578125,-0.7750244140625,33.935546875,217.1630859375,115.8447265625
252519.417054708,0.0321044921875,0.642578125,-0.7750244140625,33.935546875,217.1630859375,115.8447265625
252519.417167833,0.0321044921875,0.5985107421875,-0.7750244140625,33.935546875,217.1630859375,115.8447265625
252519.418295125,0.0321044921875,0.5985107421875,-0.8328857421875,33.935546875,217.1630859375,115.8447265625
252519.4319765,0.0321044921875,0.5985107421875,-0.8328857421875,33.935546875,218.505859375,115.8447265625
252519.432104,0.0321044921875,0.5985107421875,-0.8328857421875,33.935546875,218.505859375,118.5302734375
252519.447329208,-0.0223388671875,0.5985107421875,-0.8328857421875,33.935546875,218.505859375,118.5302734375
252519.447387166,-0.0223388671875,0.4886474609375,-0.8328857421875,33.935546875,218.505859375,118.5302734375
252519.447440458,-0.0223388671875,0.4886474609375,-0.6156005859375,33.935546875,218.505859375,118.5302734375
252519.463889208,-0.0223388671875,0.4886474609375,-0.6156005859375,33.935546875,214.29443359375,118.5302734375
252519.463949833,-0.0223388671875,0.4886474609375,-0.6156005859375,33.935546875,214.29443359375,117.24853515625
252519.480646458,-0.123291015625,0.4886474609375,-0.6156005859375,33.935546875,214.29443359375,117.24853515625
252519.480724041,-0.123291015625,0.3243408203125,-0.6156005859375,33.935546875,214.29443359375,117.24853515625
252519.480777875,-0.123291015625,0.3243408203125,-0.296142578125,33.935546875,214.29443359375,117.24853515625
252519.522057416,-0.123291015625,0.3243408203125,-0.296142578125,33.935546875,201.84326171875,117.24853515625
252519.523749125,-0.123291015625,0.3243408203125,-0.296142578125,33.935546875,201.84326171875,112.24365234375
252519.523873541,-0.232421875,0.3243408203125,-0.296142578125,33.935546875,201.84326171875,112.24365234375
252519.547441458,-0.232421875,0.3243408203125,-0.45166015625,33.935546875,201.84326171875,112.24365234375
252519.547505166,-0.232421875,0.3243408203125,-0.45166015625,-24.59716796875,201.84326171875,112.24365234375
252519.547560708,-0.232421875,0.3243408203125,-0.45166015625,-24.59716796875,195.73974609375,112.24365234375
252519.551848166,-0.3837890625,0.3243408203125,-0.45166015625,-24.59716796875,195.73974609375,112.24365234375
252519.551986958,-0.3837890625,0.309326171875,-0.45166015625,-24.59716796875,195.73974609375,112.24365234375
252519.552225583,-0.3837890625,0.309326171875,0.0377197265625,-24.59716796875,195.73974609375,112.24365234375
252519.56711525,-0.3837890625,0.309326171875,0.0377197265625,-24.59716796875,180.72509765625,112.24365234375
252519.567236833,-0.3837890625,0.309326171875,0.0377197265625,-24.59716796875,180.72509765625,90.63720703125
252519.581883208,-0.4747314453125,0.309326171875,0.0377197265625,-24.59716796875,180.72509765625,90.63720703125
252519.597273875,-0.4747314453125,0.0849609375,0.0377197265625,-24.59716796875,180.72509765625,90.63720703125
252519.597425666,-0.4747314453125,0.0849609375,0.2447509765625,-24.59716796875,180.72509765625,90.63720703125
252519.597518791,-0.4747314453125,0.0849609375,0.2447509765625,-24.59716796875,157.16552734375,90.63720703125
252519.598143916,-0.4747314453125,0.0849609375,0.2447509765625,-24.59716796875,157.16552734375,83.6181640625
252519.613849375,-0.5712890625,0.0849609375,0.2447509765625,-24.59716796875,157.16552734375,83.6181640625
252519.641580833,-0.5712890625,0.0599365234375,0.2447509765625,-24.59716796875,157.16552734375,83.6181640625
252519.642071916,-0.5712890625,0.0599365234375,0.33203125,-24.59716796875,157.16552734375,83.6181640625
252519.643784791,-0.5712890625,0.0599365234375,0.33203125,-24.59716796875,114.013671875,83.6181640625
252519.643934625,-0.5712890625,0.0599365234375,0.33203125,-24.59716796875,114.013671875,60.72998046875
252519.664301958,-0.5712890625,0.0599365234375,0.6781005859375,-24.59716796875,114.013671875,60.72998046875
252519.66436325,-0.5712890625,0.0599365234375,0.6781005859375,-8.60595703125,114.013671875,60.72998046875
252519.664416625,-0.5712890625,0.0599365234375,0.6781005859375,-8.60595703125,55.35888671875,60.72998046875
252519.672103791,-0.63330078125,0.0599365234375,0.6781005859375,-8.60595703125,55.35888671875,60.72998046875
252519.672303916,-0.63330078125,0.049560546875,0.6781005859375,-8.60595703125,55.35888671875,60.72998046875
252519.672396,-0.63330078125,0.049560546875,0.7135009765625,-8.60595703125,55.35888671875,60.72998046875
252519.687313791,-0.63330078125,0.049560546875,0.7135009765625,-8.60595703125,3.72314453125,60.72998046875
252519.687475291,-0.63330078125,0.049560546875,0.7135009765625,-8.60595703125,3.72314453125,11.5966796875
252519.7022045,-0.6470947265625,0.049560546875,0.7135009765625,-8.60595703125,3.72314453125,11.5966796875
252519.702350041,-0.6470947265625,0.0703125,0.7135009765625,-8.60595703125,3.72314453125,11.5966796875
252519.703441833,-0.6470947265625,0.0703125,0.4906005859375,-8.60595703125,3.72314453125,11.5966796875
252519.717085041,-0.6470947265625,0.0703125,0.4906005859375,-8.60595703125,-58.04443359375,11.5966796875
252519.717223708,-0.6470947265625,0.0703125,0.4906005859375,-8.60595703125,-58.04443359375,-14.95361328125
252519.732043583,-0.6287841796875,0.0703125,0.4906005859375,-8.60595703125,-58.04443359375,-14.95361328125
252519.732198875,-0.6287841796875,0.0574951171875,0.4906005859375,-8.60595703125,-58.04443359375,-14.95361328125
252519.732286083,-0.6287841796875,0.0574951171875,0.2979736328125,-8.60595703125,-58.04443359375,-14.95361328125
252519.747211208,-0.6287841796875,0.0574951171875,0.2979736328125,-8.60595703125,-93.017578125,-14.95361328125
252519.747270083,-0.6287841796875,0.0574951171875,0.2979736328125,-8.60595703125,-93.017578125,-37.41455078125
252519.763982708,-0.578125,0.0574951171875,0.2979736328125,-8.60595703125,-93.017578125,-37.41455078125
252519.764042916,-0.578125,0.13330078125,0.2979736328125,-8.60595703125,-93.017578125,-37.41455078125
252519.764099458,-0.578125,0.13330078125,0.259765625,-8.60595703125,-93.017578125,-37.41455078125
252519.7806095,-0.578125,0.13330078125,0.259765625,-8.60595703125,-130.126953125,-37.41455078125
252519.780667875,-0.578125,0.13330078125,0.259765625,-8.60595703125,-130.126953125,-65.91796875
252519.822235,-0.502197265625,0.13330078125,0.259765625,-8.60595703125,-130.126953125,-65.91796875
252519.822369625,-0.502197265625,0.1680908203125,0.259765625,-8.60595703125,-130.126953125,-65.91796875
252519.822879375,-0.502197265625,0.1680908203125,0.282470703125,-8.60595703125,-130.126953125,-65.91796875
252519.837038458,-0.502197265625,0.1680908203125,0.282470703125,-8.60595703125,-163.14697265625,-65.91796875
252519.837184875,-0.502197265625,0.1680908203125,0.282470703125,-8.60595703125,-163.14697265625,-86.48681640625
252519.852260208,-0.37841796875,0.1680908203125,0.282470703125,-8.60595703125,-163.14697265625,-86.48681640625
252519.852465125,-0.37841796875,0.2745361328125,0.282470703125,-8.60595703125,-163.14697265625,-86.48681640625
252519.852553208,-0.37841796875,0.2745361328125,-0.2113037109375,-8.60595703125,-163.14697265625,-86.48681640625
252519.867126541,-0.37841796875,0.2745361328125,-0.2113037109375,-8.60595703125,-205.74951171875,-86.48681640625
252519.867265666,-0.37841796875,0.2745361328125,-0.2113037109375,-8.60595703125,-205.74951171875,-121.03271484375
252519.881988708,-0.1961669921875,0.2745361328125,-0.2113037109375,-8.60595703125,-205.74951171875,-121.03271484375
252519.882180958,-0.1961669921875,0.5721435546875,-0.2113037109375,-8.60595703125,-205.74951171875,-121.03271484375
252519.882264458,-0.1961669921875,0.5721435546875,-0.1800537109375,-8.60595703125,-205.74951171875,-121.03271484375
252519.897781208,-0.1961669921875,0.5721435546875,-0.1800537109375,-8.60595703125,-217.1630859375,-121.03271484375
252519.897847625,-0.1961669921875,0.5721435546875,-0.1800537109375,-8.60595703125,-217.1630859375,-122.61962890625
252519.927087875,-0.025390625,0.5721435546875,-0.1800537109375,-8.60595703125,-217.1630859375,-122.61962890625
252519.927262,-0.025390625,0.6273193359375,-0.1800537109375,-8.60595703125,-217.1630859375,-122.61962890625
252519.927874791,-0.025390625,0.6273193359375,-0.610595703125,-8.60595703125,-217.1630859375,-122.61962890625
252519.928033791,-0.025390625,0.6273193359375,-0.610595703125,-8.60595703125,-224.4873046875,-122.61962890625
252519.957244375,-0.013916015625,0.6273193359375,-0.610595703125,-8.60595703125,-224.4873046875,-122.61962890625
252519.95741525,-0.013916015625,0.3497314453125,-0.610595703125,-8.60595703125,-224.4873046875,-122.61962890625
252519.957781916,-0.013916015625,0.3497314453125,-1.16064453125,-8.60595703125,-224.4873046875,-122.61962890625
252519.972301125,-0.013916015625,0.3497314453125,-1.16064453125,-8.60595703125,-221.74072265625,-122.61962890625
252519.972467291,-0.013916015625,0.3497314453125,-1.16064453125,-8.60595703125,-221.74072265625,-143.4326171875
252519.987282333,0.4493408203125,0.3497314453125,-1.16064453125,-8.60595703125,-221.74072265625,-143.4326171875
252519.987506791,0.4493408203125,0.9554443359375,-1.16064453125,-8.60595703125,-221.74072265625,-143.4326171875
252519.9875995,0.4493408203125,0.9554443359375,-0.6488037109375,-8.60595703125,-221.74072265625,-143.4326171875
252520.00217975,0.4493408203125,0.9554443359375,-0.6488037109375,-8.60595703125,-198.974609375,-143.4326171875
252520.002326583,0.4493408203125,0.9554443359375,-0.6488037109375,-8.60595703125,-198.974609375,-124.3896484375
252520.017157625,0.4990234375,0.9554443359375,-0.6488037109375,-8.60595703125,-198.974609375,-124.3896484375
252520.017337416,0.4990234375,0.9859619140625,-0.6488037109375,-8.60595703125,-198.974609375,-124.3896484375
252520.017433083,0.4990234375,0.9859619140625,-0.7303466796875,-8.60595703125,-198.974609375,-124.3896484375
252520.032126208,0.4990234375,0.9859619140625,-0.7303466796875,-8.60595703125,-194.51904296875,-124.3896484375
252520.032280583,0.4990234375,0.9859619140625,-0.7303466796875,-8.60595703125,-194.51904296875,-98.2666015625
252520.04807025,0.50048828125,0.9859619140625,-0.7303466796875,-8.60595703125,-194.51904296875,-98.2666015625
252520.048142208,0.50048828125,0.3955078125,-0.7303466796875,-8.60595703125,-194.51904296875,-98.2666015625
252520.048205208,0.50048828125,0.3955078125,-1.13671875,-8.60595703125,-194.51904296875,-98.2666015625
252520.064682916,0.50048828125,0.3955078125,-1.13671875,-8.60595703125,-189.3310546875,-98.2666015625
252520.064935833,0.50048828125,0.3955078125,-1.13671875,-8.60595703125,-189.3310546875,-112.48779296875
252520.081339958,0.7095947265625,0.3955078125,-1.13671875,-8.60595703125,-189.3310546875,-112.48779296875
252520.081411666,0.7095947265625,0.5521240234375,-1.13671875,-8.60595703125,-189.3310546875,-112.48779296875
252520.081475125,0.7095947265625,0.5521240234375,-0.7706298828125,-8.60595703125,-189.3310546875,-112.48779296875
252520.122147916,0.7095947265625,0.5521240234375,-0.7706298828125,-8.60595703125,-181.884765625,-112.48779296875
252520.122314625,0.7095947265625,0.5521240234375,-0.7706298828125,-8.60595703125,-181.884765625,-132.080078125
252520.123245083,0.866455078125,0.5521240234375,-0.7706298828125,-8.60595703125,-181.884765625,-132.080078125
252520.137084375,0.866455078125,0.5521240234375,-0.609130859375,-8.60595703125,-181.884765625,-132.080078125
252520.137263875,0.866455078125,0.5521240234375,-0.609130859375,-30.70068359375,-181.884765625,-132.080078125
252520.138445,0.866455078125,0.5521240234375,-0.609130859375,-30.70068359375,-185.4248046875,-132.080078125
252520.164781875,1.01220703125,0.5521240234375,-0.609130859375,-30.70068359375,-185.4248046875,-132.080078125
252520.196979833,1.01220703125,0.476318359375,-0.609130859375,-30.70068359375,-185.4248046875,-132.080078125
252520.197146666,1.01220703125,0.476318359375,-1.1453857421875,-30.70068359375,-185.4248046875,-132.080078125
252520.197929416,1.01220703125,0.476318359375,-1.1453857421875,-35.46142578125,-185.4248046875,-132.080078125
252520.212046708,1.01220703125,0.476318359375,-0.8555908203125,-35.46142578125,-185.4248046875,-132.080078125
252520.21223475,1.01220703125,0.476318359375,-0.8555908203125,-67.56591796875,-185.4248046875,-132.080078125
252520.212340291,1.01220703125,0.476318359375,-0.8555908203125,-67.56591796875,-149.10888671875,-132.080078125
252520.242486541,0.9058837890625,0.476318359375,-0.8555908203125,-67.56591796875,-149.10888671875,-132.080078125
252520.24802375,0.9058837890625,0.57470703125,-0.8555908203125,-67.56591796875,-149.10888671875,-132.080078125
252520.248134333,0.9058837890625,0.57470703125,-0.7470703125,-67.56591796875,-149.10888671875,-132.080078125
252520.248189708,0.9058837890625,0.57470703125,-0.7470703125,54.99267578125,-149.10888671875,-132.080078125
252520.257158791,0.862548828125,0.57470703125,-0.7470703125,54.99267578125,-149.10888671875,-132.080078125
252520.25731,0.862548828125,0.4814453125,-0.7470703125,54.99267578125,-149.10888671875,-132.080078125
252520.257360041,0.862548828125,0.4814453125,-0.6182861328125,54.99267578125,-149.10888671875,-132.080078125
252520.2722245,0.862548828125,0.4814453125,-0.6182861328125,54.99267578125,-101.74560546875,-132.080078125
252520.272328291,0.862548828125,0.4814453125,-0.6182861328125,54.99267578125,-101.74560546875,-70.1904296875
252520.286950125,0.915771484375,0.4814453125,-0.6182861328125,54.99267578125,-101.74560546875,-70.1904296875
252520.287085041,0.915771484375,0.562744140625,-0.6182861328125,54.99267578125,-101.74560546875,-70.1904296875
252520.2871525,0.915771484375,0.562744140625,-0.516845703125,54.99267578125,-101.74560546875,-70.1904296875
252520.301890458,0.915771484375,0.562744140625,-0.516845703125,54.99267578125,-96.86279296875,-70.1904296875
252520.302010083,0.915771484375,0.562744140625,-0.516845703125,54.99267578125,-96.86279296875,-76.11083984375
252520.3170265,0.9527587890625,0.562744140625,-0.516845703125,54.99267578125,-96.86279296875,-76.11083984375
252520.31715425,0.9527587890625,0.6025390625,-0.516845703125,54.99267578125,-96.86279296875,-76.11083984375
252520.318405083,0.9527587890625,0.6025390625,-0.46435546875,54.99267578125,-96.86279296875,-76.11083984375
252520.331981875,0.9527587890625,0.6025390625,-0.46435546875,54.99267578125,-99.54833984375,-76.11083984375
252520.332087333,0.9527587890625,0.6025390625,-0.46435546875,54.99267578125,-99.54833984375,-70.61767578125
252520.346950583,0.9398193359375,0.6025390625,-0.46435546875,54.99267578125,-99.54833984375,-70.61767578125
252520.34708175,0.9398193359375,0.5289306640625,-0.46435546875,54.99267578125,-99.54833984375,-70.61767578125
252520.34715175,0.9398193359375,0.5289306640625,-0.4549560546875,54.99267578125,-99.54833984375,-70.61767578125
252520.363268916,0.9398193359375,0.5289306640625,-0.4549560546875,54.99267578125,-95.3369140625,-70.61767578125
252520.380122291,0.9398193359375,0.5289306640625,-0.4549560546875,54.99267578125,-95.3369140625,-61.767578125
252520.380167833,0.9390869140625,0.5289306640625,-0.4549560546875,54.99267578125,-95.3369140625,-61.767578125
252520.380210416,0.9390869140625,0.5374755859375,-0.4549560546875,54.99267578125,-95.3369140625,-61.767578125
252520.380251,0.9390869140625,0.5374755859375,-0.40966796875,54.99267578125,-95.3369140625,-61.767578125
252520.436970208,0.9390869140625,0.5374755859375,-0.40966796875,54.99267578125,-76.72119140625,-61.767578125
252520.437126791,0.9390869140625,0.5374755859375,-0.40966796875,54.99267578125,-76.72119140625,-52.06298828125
252520.437212,0.8980712890625,0.5374755859375,-0.40966796875,54.99267578125,-76.72119140625,-52.06298828125
252520.452145458,0.8980712890625,0.5374755859375,-0.4720458984375,54.99267578125,-76.72119140625,-52.06298828125
252520.452328083,0.8980712890625,0.5374755859375,-0.4720458984375,4.638671875,-76.72119140625,-52.06298828125
252520.452391541,0.8980712890625,0.5374755859375,-0.4720458984375,4.638671875,-51.94091796875,-52.06298828125
252520.481933166,0.8721923828125,0.5374755859375,-0.4720458984375,4.638671875,-51.94091796875,-52.06298828125
252520.4835425,0.8721923828125,0.4913330078125,-0.4720458984375,4.638671875,-51.94091796875,-52.06298828125
252520.483787791,0.8721923828125,0.4913330078125,-0.379638671875,4.638671875,-51.94091796875,-52.06298828125
252520.483887,0.8721923828125,0.4913330078125,-0.379638671875,6.89697265625,-51.94091796875,-52.06298828125
252520.4984235,0.885986328125,0.4913330078125,-0.379638671875,6.89697265625,-51.94091796875,-52.06298828125
252520.498504666,0.885986328125,0.4454345703125,-0.379638671875,6.89697265625,-51.94091796875,-52.06298828125
252520.498583958,0.885986328125,0.4454345703125,-0.3585205078125,6.89697265625,-51.94091796875,-52.06298828125
252520.498654208,0.885986328125,0.4454345703125,-0.3585205078125,1.15966796875,-51.94091796875,-52.06298828125
252520.515156,0.885986328125,0.4454345703125,-0.3585205078125,1.15966796875,2.685546875,-52.06298828125
252520.515231375,0.885986328125,0.4454345703125,-0.3585205078125,1.15966796875,2.685546875,0.91552734375
252520.531858291,0.9195556640625,0.4454345703125,-0.3585205078125,1.15966796875,2.685546875,0.91552734375
252520.531935666,0.9195556640625,0.4281005859375,-0.3585205078125,1.15966796875,2.685546875,0.91552734375
252520.532004708,0.9195556640625,0.4281005859375,-0.32080078125,1.15966796875,2.685546875,0.91552734375
252520.54822175,0.9195556640625,0.4281005859375,-0.32080078125,1.15966796875,10.8642578125,0.91552734375
252520.548303625,0.9195556640625,0.4281005859375,-0.32080078125,1.15966796875,10.8642578125,9.521484375
252520.558676666,0.9039306640625,0.4281005859375,-0.32080078125,1.15966796875,10.8642578125,9.521484375
252520.564965791,0.9039306640625,0.447021484375,-0.32080078125,1.15966796875,10.8642578125,9.521484375
252520.565070291,0.9039306640625,0.447021484375,-0.3248291015625,1.15966796875,10.8642578125,9.521484375
252520.573734541,0.9039306640625,0.447021484375,-0.3248291015625,1.15966796875,11.1083984375,9.521484375
252520.573915666,0.9039306640625,0.447021484375,-0.3248291015625,1.15966796875,11.1083984375,12.8173828125
252520.589642625,0.8980712890625,0.447021484375,-0.3248291015625,1.15966796875,11.1083984375,12.8173828125
252520.58987775,0.8980712890625,0.4031982421875,-0.3248291015625,1.15966796875,11.1083984375,12.8173828125
252520.589965458,0.8980712890625,0.4031982421875,-0.306640625,1.15966796875,11.1083984375,12.8173828125
252520.602827333,0.8980712890625,0.4031982421875,-0.306640625,1.15966796875,12.26806640625,12.8173828125
252520.60322275,0.8980712890625,0.4031982421875,-0.306640625,1.15966796875,12.26806640625,13.97705078125
252520.618063541,0.9031982421875,0.4031982421875,-0.306640625,1.15966796875,12.26806640625,13.97705078125
252520.618268958,0.9031982421875,0.37548828125,-0.306640625,1.15966796875,12.26806640625,13.97705078125
252520.618340708,0.9031982421875,0.37548828125,-0.3193359375,1.15966796875,12.26806640625,13.97705078125
252520.632167625,0.9031982421875,0.37548828125,-0.3193359375,1.15966796875,14.46533203125,13.97705078125
252520.632329125,0.9031982421875,0.37548828125,-0.3193359375,1.15966796875,14.46533203125,15.13671875
252520.647756916,0.903564453125,0.37548828125,-0.3193359375,1.15966796875,14.46533203125,15.13671875
252520.647832416,0.903564453125,0.44775390625,-0.3193359375,1.15966796875,14.46533203125,15.13671875
252520.647902166,0.903564453125,0.44775390625,-0.4556884765625,1.15966796875,14.46533203125,15.13671875
252520.664565875,0.903564453125,0.44775390625,-0.4556884765625,1.15966796875,22.705078125,15.13671875
252520.664643708,0.903564453125,0.44775390625,-0.4556884765625,1.15966796875,22.705078125,21.91162109375
252520.681262958,0.9134521484375,0.44775390625,-0.4556884765625,1.15966796875,22.705078125,21.91162109375
252520.681341083,0.9134521484375,0.4940185546875,-0.4556884765625,1.15966796875,22.705078125,21.91162109375
252520.68141125,0.9134521484375,0.4940185546875,-0.486328125,1.15966796875,22.705078125,21.91162109375
NEW_REP,,,,,,
252520.722254541,0.9134521484375,0.4940185546875,-0.486328125,1.15966796875,44.00634765625,21.91162109375
252520.722423125,0.9134521484375,0.4940185546875,-0.486328125,1.15966796875,44.00634765625,34.423828125
252520.72306875,0.9337158203125,0.4940185546875,-0.486328125,1.15966796875,44.00634765625,34.423828125
252520.736993541,0.9337158203125,0.4940185546875,-0.5250244140625,1.15966796875,44.00634765625,34.423828125
252520.737091875,0.9337158203125,0.4940185546875,-0.5250244140625,-6.53076171875,44.00634765625,34.423828125
252520.752560625,0.9337158203125,0.4940185546875,-0.5250244140625,-6.53076171875,67.56591796875,34.423828125
252520.752757208,0.94189453125,0.4940185546875,-0.5250244140625,-6.53076171875,67.56591796875,34.423828125
252520.752841375,0.94189453125,0.5982666015625,-0.5250244140625,-6.53076171875,67.56591796875,34.423828125
252520.753070875,0.94189453125,0.5982666015625,-0.676025390625,-6.53076171875,67.56591796875,34.423828125
252520.767390208,0.94189453125,0.5982666015625,-0.676025390625,-6.53076171875,106.8115234375,34.423828125
252520.767561,0.94189453125,0.5982666015625,-0.676025390625,-6.53076171875,106.8115234375,75.1953125
252520.79740925,0.974853515625,0.5982666015625,-0.676025390625,-6.53076171875,106.8115234375,75.1953125
252520.797595166,0.974853515625,0.6314697265625,-0.676025390625,-6.53076171875,106.8115234375,75.1953125
252520.798255208,0.974853515625,0.6314697265625,-0.7606201171875,-6.53076171875,106.8115234375,75.1953125
252520.79842925,0.974853515625,0.6314697265625,-0.7606201171875,-19.1650390625,106.8115234375,75.1953125
252520.815137958,0.97900390625,0.6314697265625,-0.7606201171875,-19.1650390625,106.8115234375,75.1953125
252520.815221541,0.97900390625,0.6365966796875,-0.7606201171875,-19.1650390625,106.8115234375,75.1953125
252520.8152945,0.97900390625,0.6365966796875,-0.7354736328125,-19.1650390625,106.8115234375,75.1953125
252520.815373333,0.97900390625,0.6365966796875,-0.7354736328125,-33.50830078125,106.8115234375,75.1953125
252520.831784541,0.97900390625,0.6365966796875,-0.7354736328125,-33.50830078125,137.0849609375,75.1953125
252520.831868166,0.97900390625,0.6365966796875,-0.7354736328125,-33.50830078125,137.0849609375,94.970703125
252520.842128916,0.925537109375,0.6365966796875,-0.7354736328125,-33.50830078125,137.0849609375,94.970703125
252520.857034541,0.925537109375,0.6741943359375,-0.7354736328125,-33.50830078125,137.0849609375,94.970703125
252520.872092708,0.925537109375,0.6741943359375,-0.7786865234375,-33.50830078125,137.0849609375,94.970703125
252520.887268333,0.925537109375,0.6741943359375,-0.7786865234375,-33.50830078125,150.81787109375,94.970703125
252520.887467291,0.898681640625,0.6741943359375,-0.7786865234375,-33.50830078125,150.81787109375,94.970703125
252520.887582708,0.898681640625,0.73193359375,-0.7786865234375,-33.50830078125,150.81787109375,94.970703125
252520.93227,0.898681640625,0.73193359375,-0.7786865234375,-33.50830078125,170.22705078125,94.970703125
252520.932479291,0.898681640625,0.73193359375,-0.7786865234375,-33.50830078125,170.22705078125,108.3984375
252520.933008416,0.864990234375,0.73193359375,-0.7786865234375,-33.50830078125,170.22705078125,108.3984375
252520.93319825,0.864990234375,0.7427978515625,-0.7786865234375,-33.50830078125,170.22705078125,108.3984375
252520.964997083,0.864990234375,0.7427978515625,-0.7786865234375,-33.50830078125,186.5234375,108.3984375
252520.965080625,0.864990234375,0.7427978515625,-0.7786865234375,-33.50830078125,186.5234375,111.51123046875
252520.965154791,0.6644287109375,0.7427978515625,-0.7786865234375,-33.50830078125,186.5234375,111.51123046875
252520.965226458,0.6644287109375,0.667724609375,-0.7786865234375,-33.50830078125,186.5234375,111.51123046875
252520.965296833,0.6644287109375,0.667724609375,-0.9903564453125,-33.50830078125,186.5234375,111.51123046875
252520.981582791,0.6644287109375,0.667724609375,-0.9903564453125,-33.50830078125,210.14404296875,111.51123046875
252520.981656125,0.6644287109375,0.667724609375,-0.9903564453125,-33.50830078125,210.14404296875,121.7041015625
252521.022431833,0.5377197265625,0.667724609375,-0.9903564453125,-33.50830078125,210.14404296875,121.7041015625
252521.02264075,0.5377197265625,0.69287109375,-0.9903564453125,-33.50830078125,210.14404296875,121.7041015625
252521.02275725,0.5377197265625,0.69287109375,-0.971923828125,-33.50830078125,210.14404296875,121.7041015625
252521.037353541,0.5377197265625,0.69287109375,-0.971923828125,-33.50830078125,218.44482421875,121.7041015625
252521.037545333,0.5377197265625,0.69287109375,-0.971923828125,-33.50830078125,218.44482421875,117.73681640625
252521.067844291,0.2877197265625,0.69287109375,-0.971923828125,-33.50830078125,218.44482421875,117.73681640625
252521.068036375,0.2877197265625,0.558349609375,-0.971923828125,-33.50830078125,218.44482421875,117.73681640625
252521.068101541,0.2877197265625,0.558349609375,-0.770751953125,-33.50830078125,218.44482421875,117.73681640625
252521.068306166,0.2877197265625,0.558349609375,-0.770751953125,-0.732421875,218.44482421875,117.73681640625
252521.083791208,0.157958984375,0.558349609375,-0.770751953125,-0.732421875,218.44482421875,117.73681640625
252521.083957,0.157958984375,0.5404052734375,-0.770751953125,-0.732421875,218.44482421875,117.73681640625
252521.084053083,0.157958984375,0.5404052734375,-0.7830810546875,-0.732421875,218.44482421875,117.73681640625
252521.098218708,0.157958984375,0.5404052734375,-0.7830810546875,-0.732421875,228.6376953125,117.73681640625
252521.098300416,0.157958984375,0.5404052734375,-0.7830810546875,-0.732421875,228.6376953125,104.1259765625
252521.11460025,0.0618896484375,0.5404052734375,-0.7830810546875,-0.732421875,228.6376953125,104.1259765625
252521.114670083,0.0618896484375,0.2998046875,-0.7830810546875,-0.732421875,228.6376953125,104.1259765625
252521.114733208,0.0618896484375,0.2998046875,-0.833740234375,-0.732421875,228.6376953125,104.1259765625
252521.131307958,0.0618896484375,0.2998046875,-0.833740234375,-0.732421875,229.248046875,104.1259765625
252521.13138825,0.0618896484375,0.2998046875,-0.833740234375,-0.732421875,229.248046875,95.27587890625
252521.147836625,-0.060302734375,0.2998046875,-0.833740234375,-0.732421875,229.248046875,95.27587890625
252521.147902,-0.060302734375,0.34130859375,-0.833740234375,-0.732421875,229.248046875,95.27587890625
252521.1479635,-0.060302734375,0.34130859375,-0.57275390625,-0.732421875,229.248046875,95.27587890625
252521.157267541,-0.060302734375,0.34130859375,-0.57275390625,-0.732421875,232.91015625,95.27587890625
252521.158181416,-0.060302734375,0.34130859375,-0.57275390625,-0.732421875,232.91015625,81.35986328125
252521.172986791,-0.1341552734375,0.34130859375,-0.57275390625,-0.732421875,232.91015625,81.35986328125
252521.17316225,-0.1341552734375,0.6578369140625,-0.57275390625,-0.732421875,232.91015625,81.35986328125
252521.173259875,-0.1341552734375,0.6578369140625,-0.639404296875,-0.732421875,232.91015625,81.35986328125
252521.188099833,-0.1341552734375,0.6578369140625,-0.639404296875,-0.732421875,236.14501953125,81.35986328125
252521.188181583,-0.1341552734375,0.6578369140625,-0.639404296875,-0.732421875,236.14501953125,74.40185546875
252521.202973916,-0.20166015625,0.6578369140625,-0.639404296875,-0.732421875,236.14501953125,74.40185546875
252521.203133083,-0.20166015625,0.421630859375,-0.639404296875,-0.732421875,236.14501953125,74.40185546875
252521.203225583,-0.20166015625,0.421630859375,-0.3426513671875,-0.732421875,236.14501953125,74.40185546875
252521.246965541,-0.20166015625,0.421630859375,-0.3426513671875,-0.732421875,228.02734375,74.40185546875
252521.248281,-0.20166015625,0.421630859375,-0.3426513671875,-0.732421875,228.02734375,78.79638671875
252521.248448833,-0.359130859375,0.421630859375,-0.3426513671875,-0.732421875,228.02734375,78.79638671875
252521.28141775,-0.359130859375,0.421630859375,-0.0592041015625,-0.732421875,228.02734375,78.79638671875
252521.281489875,-0.359130859375,0.421630859375,-0.0592041015625,41.015625,228.02734375,78.79638671875
252521.281554166,-0.359130859375,0.421630859375,-0.0592041015625,41.015625,208.67919921875,78.79638671875
252521.281616125,-0.433837890625,0.421630859375,-0.0592041015625,41.015625,208.67919921875,78.79638671875
252521.281676125,-0.433837890625,0.14404296875,-0.0592041015625,41.015625,208.67919921875,78.79638671875
252521.281735208,-0.433837890625,0.14404296875,0.22412109375,41.015625,208.67919921875,78.79638671875
252521.322388666,-0.433837890625,0.14404296875,0.22412109375,41.015625,154.541015625,78.79638671875
252521.322533708,-0.433837890625,0.14404296875,0.22412109375,41.015625,154.541015625,58.41064453125
252521.322609833,-0.4920654296875,0.14404296875,0.22412109375,41.015625,154.541015625,58.41064453125
252521.34786275,-0.4920654296875,0.14404296875,0.53564453125,41.015625,154.541015625,58.41064453125
252521.347934041,-0.4920654296875,0.14404296875,0.53564453125,13.671875,154.541015625,58.41064453125
252521.34800375,-0.4920654296875,0.14404296875,0.53564453125,13.671875,113.28125,58.41064453125
252521.365996291,-0.5811767578125,0.14404296875,0.53564453125,13.671875,113.28125,58.41064453125
252521.367840333,-0.5811767578125,0.1546630859375,0.53564453125,13.671875,113.28125,58.41064453125
252521.368021333,-0.5811767578125,0.1546630859375,0.662353515625,13.671875,113.28125,58.41064453125
252521.3681145,-0.5811767578125,0.1546630859375,0.662353515625,26.3671875,113.28125,58.41064453125
252521.382041166,-0.611083984375,0.1546630859375,0.662353515625,26.3671875,113.28125,58.41064453125
252521.382230875,-0.611083984375,0.1212158203125,0.662353515625,26.3671875,113.28125,58.41064453125
252521.382313458,-0.611083984375,0.1212158203125,0.5804443359375,26.3671875,113.28125,58.41064453125
252521.397846541,-0.611083984375,0.1212158203125,0.5804443359375,26.3671875,-34.423828125,58.41064453125
252521.397919791,-0.611083984375,0.1212158203125,0.5804443359375,26.3671875,-34.423828125,-6.77490234375
252521.414455916,-0.6385498046875,0.1212158203125,0.5804443359375,26.3671875,-34.423828125,-6.77490234375
252521.414536833,-0.6385498046875,0.0352783203125,0.5804443359375,26.3671875,-34.423828125,-6.77490234375
252521.414598916,-0.6385498046875,0.0352783203125,0.453857421875,26.3671875,-34.423828125,-6.77490234375
252521.430989666,-0.6385498046875,0.0352783203125,0.453857421875,26.3671875,-86.669921875,-6.77490234375
252521.431059958,-0.6385498046875,0.0352783203125,0.453857421875,26.3671875,-86.669921875,-35.0341796875
252521.487376833,-0.616455078125,0.0352783203125,0.453857421875,26.3671875,-86.669921875,-35.0341796875
252521.487628333,-0.616455078125,0.1544189453125,0.453857421875,26.3671875,-86.669921875,-35.0341796875
252521.489521541,-0.616455078125,0.1544189453125,0.2139892578125,26.3671875,-86.669921875,-35.0341796875
252521.5031255,-0.616455078125,0.1544189453125,0.2139892578125,26.3671875,-112.9150390625,-35.0341796875
252521.503326916,-0.616455078125,0.1544189453125,0.2139892578125,26.3671875,-112.9150390625,-54.13818359375
252521.532101125,-0.45947265625,0.1544189453125,0.2139892578125,26.3671875,-112.9150390625,-54.13818359375
252521.532298,-0.45947265625,0.294921875,0.2139892578125,26.3671875,-112.9150390625,-54.13818359375
252521.547413541,-0.45947265625,0.294921875,-0.112060546875,26.3671875,-112.9150390625,-54.13818359375
252521.547642833,-0.45947265625,0.294921875,-0.112060546875,-1.03759765625,-112.9150390625,-54.13818359375
252521.547772166,-0.4024658203125,0.294921875,-0.112060546875,-1.03759765625,-112.9150390625,-54.13818359375
252521.548220375,-0.4024658203125,0.3809814453125,-0.112060546875,-1.03759765625,-112.9150390625,-54.13818359375
252521.564957833,-0.4024658203125,0.3809814453125,-0.112060546875,-2.9296875,-112.9150390625,-54.13818359375
252521.565040416,-0.4024658203125,0.3809814453125,-0.112060546875,-2.9296875,-192.7490234375,-54.13818359375
252521.565114166,-0.4024658203125,0.3809814453125,-0.112060546875,-2.9296875,-192.7490234375,-107.7880859375
252521.581952333,-0.2259521484375,0.3809814453125,-0.112060546875,-2.9296875,-192.7490234375,-107.7880859375
252521.582031416,-0.2259521484375,0.4349365234375,-0.112060546875,-2.9296875,-192.7490234375,-107.7880859375
252521.58210325,-0.2259521484375,0.4349365234375,-0.2110595703125,-2.9296875,-192.7490234375,-107.7880859375
252521.598283625,-0.2259521484375,0.4349365234375,-0.2110595703125,-2.9296875,-204.28466796875,-107.7880859375
252521.598360666,-0.2259521484375,0.4349365234375,-0.2110595703125,-2.9296875,-204.28466796875,-116.88232421875
252521.608111458,-0.2158203125,0.4349365234375,-0.2110595703125,-2.9296875,-204.28466796875,-116.88232421875
252521.608398708,-0.2158203125,0.451171875,-0.2110595703125,-2.9296875,-204.28466796875,-116.88232421875
252521.608536625,-0.2158203125,0.451171875,-0.7958984375,-2.9296875,-204.28466796875,-116.88232421875
252521.622350875,-0.2158203125,0.451171875,-0.7958984375,-2.9296875,-212.58544921875,-116.88232421875
252521.622500541,-0.2158203125,0.451171875,-0.7958984375,-2.9296875,-212.58544921875,-130.31005859375
252521.637242333,-0.1142578125,0.451171875,-0.7958984375,-2.9296875,-212.58544921875,-130.31005859375
252521.637419083,-0.1142578125,0.891357421875,-0.7958984375,-2.9296875,-212.58544921875,-130.31005859375
252521.652338583,-0.1142578125,0.891357421875,-0.624267578125,-2.9296875,-212.58544921875,-130.31005859375
252521.65253875,-0.1142578125,0.891357421875,-0.624267578125,-2.9296875,-195.73974609375,-130.31005859375
252521.652648708,-0.1142578125,0.891357421875,-0.624267578125,-2.9296875,-195.73974609375,-131.40869140625
252521.667167,0.1290283203125,0.891357421875,-0.624267578125,-2.9296875,-195.73974609375,-131.40869140625
252521.667368583,0.1290283203125,0.6898193359375,-0.624267578125,-2.9296875,-195.73974609375,-131.40869140625
252521.667474041,0.1290283203125,0.6898193359375,-0.52734375,-2.9296875,-195.73974609375,-131.40869140625
252521.683751125,0.1290283203125,0.6898193359375,-0.52734375,-2.9296875,-191.46728515625,-131.40869140625
252521.683893291,0.1290283203125,0.6898193359375,-0.52734375,-2.9296875,-191.46728515625,-146.484375
252521.698622375,0.3663330078125,0.6898193359375,-0.52734375,-2.9296875,-191.46728515625,-146.484375
252521.698804291,0.3663330078125,0.1563720703125,-0.52734375,-2.9296875,-191.46728515625,-146.484375
252521.698907375,0.3663330078125,0.1563720703125,-1.1177978515625,-2.9296875,-191.46728515625,-146.484375
252521.71512,0.3663330078125,0.1563720703125,-1.1177978515625,-2.9296875,-179.26025390625,-146.484375
252521.715203041,0.3663330078125,0.1563720703125,-1.1177978515625,-2.9296875,-179.26025390625,-199.0966796875
252521.788181208,0.4866943359375,0.1563720703125,-1.1177978515625,-2.9296875,-179.26025390625,-199.0966796875
252521.794866416,0.4866943359375,0.91015625,-1.1177978515625,-2.9296875,-179.26025390625,-199.0966796875
252521.794967541,0.4866943359375,0.91015625,-0.839599609375,-2.9296875,-179.26025390625,-199.0966796875
252521.8022785,0.4866943359375,0.91015625,-0.839599609375,-2.9296875,-165.52734375,-199.0966796875
252521.802500166,0.4866943359375,0.91015625,-0.839599609375,-2.9296875,-165.52734375,-186.95068359375
252521.817232125,0.881591796875,0.91015625,-0.839599609375,-2.9296875,-165.52734375,-186.95068359375
252521.817502916,0.881591796875,0.443603515625,-0.839599609375,-2.9296875,-165.52734375,-186.95068359375
252521.817623416,0.881591796875,0.443603515625,-0.9154052734375,-2.9296875,-165.52734375,-186.95068359375
252521.833656166,0.881591796875,0.443603515625,-0.9154052734375,-2.9296875,-174.62158203125,-186.95068359375
252521.833861416,0.881591796875,0.443603515625,-0.9154052734375,-2.9296875,-174.62158203125,-166.6259765625
252521.848796875,1.016357421875,0.443603515625,-0.9154052734375,-2.9296875,-174.62158203125,-166.6259765625
252521.848892916,1.016357421875,1.107421875,-0.9154052734375,-2.9296875,-174.62158203125,-166.6259765625
252521.84898325,1.016357421875,1.107421875,-0.614013671875,-2.9296875,-174.62158203125,-166.6259765625
252521.865271583,1.016357421875,1.107421875,-0.614013671875,-2.9296875,-163.818359375,-166.6259765625
252521.86536175,1.016357421875,1.107421875,-0.614013671875,-2.9296875,-163.818359375,-120.30029296875
252521.882015625,1.0670166015625,1.107421875,-0.614013671875,-2.9296875,-163.818359375,-120.30029296875
252521.882113541,1.0670166015625,0.802734375,-0.614013671875,-2.9296875,-163.818359375,-120.30029296875
252521.882201333,1.0670166015625,0.802734375,-0.954833984375,-2.9296875,-163.818359375,-120.30029296875
252521.892397541,1.0670166015625,0.802734375,-0.954833984375,-2.9296875,-162.4755859375,-120.30029296875
252521.898713541,1.0670166015625,0.802734375,-0.954833984375,-2.9296875,-162.4755859375,-107.666015625
252521.907489791,0.9654541015625,0.802734375,-0.954833984375,-2.9296875,-162.4755859375,-107.666015625
252521.907764375,0.9654541015625,0.592041015625,-0.954833984375,-2.9296875,-162.4755859375,-107.666015625
252521.90788025,0.9654541015625,0.592041015625,-0.7718505859375,-2.9296875,-162.4755859375,-107.666015625
252521.92243625,0.9654541015625,0.592041015625,-0.7718505859375,-2.9296875,-138.61083984375,-107.666015625
252521.922630791,0.9654541015625,0.592041015625,-0.7718505859375,-2.9296875,-138.61083984375,-106.26220703125
252521.937611041,0.946533203125,0.592041015625,-0.7718505859375,-2.9296875,-138.61083984375,-106.26220703125
252521.937878333,0.946533203125,0.6983642578125,-0.7718505859375,-2.9296875,-138.61083984375,-106.26220703125
252521.938012,0.946533203125,0.6983642578125,-0.5916748046875,-2.9296875,-138.61083984375,-106.26220703125
252521.952406625,0.946533203125,0.6983642578125,-0.5916748046875,-2.9296875,-108.3984375,-106.26220703125
252521.952614958,0.946533203125,0.6983642578125,-0.5916748046875,-2.9296875,-108.3984375,-80.6884765625
252521.967360125,0.9276123046875,0.6983642578125,-0.5916748046875,-2.9296875,-108.3984375,-80.6884765625
252521.967626625,0.9276123046875,0.62646484375,-0.5916748046875,-2.9296875,-108.3984375,-80.6884765625
252521.967738875,0.9276123046875,0.62646484375,-0.549072265625,-2.9296875,-108.3984375,-80.6884765625
252521.982168041,0.9276123046875,0.62646484375,-0.549072265625,-2.9296875,-93.93310546875,-80.6884765625
252521.982353166,0.9276123046875,0.62646484375,-0.549072265625,-2.9296875,-93.93310546875,-69.9462890625
252521.998932583,0.9205322265625,0.62646484375,-0.549072265625,-2.9296875,-93.93310546875,-69.9462890625
252521.999032458,0.9205322265625,0.6387939453125,-0.549072265625,-2.9296875,-93.93310546875,-69.9462890625
252521.999127958,0.9205322265625,0.6387939453125,-0.5390625,-2.9296875,-93.93310546875,-69.9462890625
252522.015914041,0.9205322265625,0.6387939453125,-0.5390625,-2.9296875,-87.95166015625,-69.9462890625
252522.016018,0.9205322265625,0.6387939453125,-0.5390625,-2.9296875,-87.95166015625,-67.07763671875
252522.032307333,0.9031982421875,0.6387939453125,-0.5390625,-2.9296875,-87.95166015625,-67.07763671875
252522.032402625,0.9031982421875,0.582763671875,-0.5390625,-2.9296875,-87.95166015625,-67.07763671875
252522.032488583,0.9031982421875,0.582763671875,-0.522705078125,-2.9296875,-87.95166015625,-67.07763671875
252522.087852583,0.9031982421875,0.582763671875,-0.522705078125,-2.9296875,-85.02197265625,-67.07763671875
252522.088292708,0.9031982421875,0.582763671875,-0.522705078125,-2.9296875,-85.02197265625,-63.1103515625
252522.088515666,0.90283203125,0.582763671875,-0.522705078125,-2.9296875,-85.02197265625,-63.1103515625
252522.116892833,0.90283203125,0.582763671875,-0.43408203125,-2.9296875,-85.02197265625,-63.1103515625
252522.118379625,0.90283203125,0.582763671875,-0.43408203125,9.94873046875,-85.02197265625,-63.1103515625
252522.118551541,0.90283203125,0.582763671875,-0.43408203125,9.94873046875,-70.6787109375,-63.1103515625
252522.132504125,0.8826904296875,0.582763671875,-0.43408203125,9.94873046875,-70.6787109375,-63.1103515625
252522.132580083,0.8826904296875,0.5587158203125,-0.43408203125,9.94873046875,-70.6787109375,-63.1103515625
252522.132650291,0.8826904296875,0.5587158203125,-0.47021484375,9.94873046875,-70.6787109375,-63.1103515625
252522.148428833,0.8826904296875,0.5587158203125,-0.47021484375,9.94873046875,-70.6787109375,-21.17919921875
252522.165577958,0.896484375,0.5587158203125,-0.47021484375,9.94873046875,-70.6787109375,-21.17919921875
252522.165678416,0.896484375,0.496826171875,-0.47021484375,9.94873046875,-70.6787109375,-21.17919921875
252522.165768083,0.896484375,0.496826171875,-0.342041015625,9.94873046875,-70.6787109375,-21.17919921875
252522.18200125,0.896484375,0.496826171875,-0.342041015625,9.94873046875,-9.1552734375,-21.17919921875
252522.182092708,0.896484375,0.496826171875,-0.342041015625,9.94873046875,-9.1552734375,-8.23974609375
252522.207224666,0.8736572265625,0.496826171875,-0.342041015625,9.94873046875,-9.1552734375,-8.23974609375
252522.208539166,0.8736572265625,0.48779296875,-0.342041015625,9.94873046875,-9.1552734375,-8.23974609375
252522.208850583,0.8736572265625,0.48779296875,-0.3507080078125,9.94873046875,-9.1552734375,-8.23974609375
252522.209022166,0.8736572265625,0.48779296875,-0.3507080078125,2.0751953125,-9.1552734375,-8.23974609375
252522.223050708,0.8785400390625,0.48779296875,-0.3507080078125,2.0751953125,-9.1552734375,-8.23974609375
252522.223282583,0.8785400390625,0.470458984375,-0.3507080078125,2.0751953125,-9.1552734375,-8.23974609375
252522.223424416,0.8785400390625,0.470458984375,-0.3458251953125,2.0751953125,-9.1552734375,-8.23974609375
252522.237475083,0.8785400390625,0.470458984375,-0.3458251953125,2.0751953125,6.89697265625,-8.23974609375
252522.237681875,0.8785400390625,0.470458984375,-0.3458251953125,2.0751953125,6.89697265625,4.8828125
252522.252327458,0.9053955078125,0.470458984375,-0.3458251953125,2.0751953125,6.89697265625,4.8828125
252522.252609458,0.9053955078125,0.51318359375,-0.3458251953125,2.0751953125,6.89697265625,4.8828125
252522.2527235,0.9053955078125,0.51318359375,-0.4921875,2.0751953125,6.89697265625,4.8828125
252522.28169425,0.9053955078125,0.51318359375,-0.4921875,2.0751953125,6.28662109375,4.8828125
252522.283344,0.9053955078125,0.51318359375,-0.4921875,2.0751953125,6.28662109375,8.36181640625
252522.283551625,0.804443359375,0.51318359375,-0.4921875,2.0751953125,6.28662109375,8.36181640625
252522.29808675,0.804443359375,0.51318359375,-0.583740234375,2.0751953125,6.28662109375,8.36181640625
252522.29817375,0.804443359375,0.51318359375,-0.583740234375,-45.654296875,6.28662109375,8.36181640625
252522.298247708,0.804443359375,0.51318359375,-0.583740234375,-45.654296875,22.39990234375,8.36181640625
252522.326861708,0.898681640625,0.51318359375,-0.583740234375,-45.654296875,22.39990234375,8.36181640625
252522.328153041,0.898681640625,0.6824951171875,-0.583740234375,-45.654296875,22.39990234375,8.36181640625
252522.3881845,0.898681640625,0.6824951171875,-0.493896484375,-45.654296875,22.39990234375,8.36181640625
252522.388546666,0.898681640625,0.6824951171875,-0.493896484375,-61.09619140625,22.39990234375,8.36181640625
252522.388677666,0.884765625,0.6824951171875,-0.493896484375,-61.09619140625,22.39990234375,8.36181640625
252522.388827458,0.884765625,0.70361328125,-0.493896484375,-61.09619140625,22.39990234375,8.36181640625
NEW_REP,,,,,,
252522.415607708,0.884765625,0.70361328125,-0.493896484375,-36.43798828125,22.39990234375,8.36181640625
252522.415687708,0.884765625,0.70361328125,-0.493896484375,-36.43798828125,87.7685546875,8.36181640625
252522.415760333,0.884765625,0.70361328125,-0.493896484375,-36.43798828125,87.7685546875,64.02587890625
252522.432422791,0.932373046875,0.70361328125,-0.493896484375,-36.43798828125,87.7685546875,64.02587890625
252522.432614958,0.932373046875,0.6595458984375,-0.493896484375,-36.43798828125,87.7685546875,64.02587890625
252522.433284375,0.932373046875,0.6595458984375,-0.7303466796875,-36.43798828125,87.7685546875,64.02587890625
252522.433427125,0.932373046875,0.6595458984375,-0.7303466796875,-36.07177734375,87.7685546875,64.02587890625
252522.448819333,0.9376220703125,0.6595458984375,-0.7303466796875,-36.07177734375,87.7685546875,64.02587890625
252522.448902583,0.9376220703125,0.67724609375,-0.7303466796875,-36.07177734375,87.7685546875,64.02587890625
252522.448974791,0.9376220703125,0.67724609375,-0.7470703125,-36.07177734375,87.7685546875,64.02587890625
252522.464329125,0.9376220703125,0.67724609375,-0.7470703125,-36.07177734375,139.09912109375,64.02587890625
252522.464396833,0.9376220703125,0.67724609375,-0.7470703125,-36.07177734375,139.09912109375,93.017578125
252522.481530333,0.9183349609375,0.67724609375,-0.7470703125,-36.07177734375,139.09912109375,93.017578125
252522.481611291,0.9183349609375,0.6341552734375,-0.7470703125,-36.07177734375,139.09912109375,93.017578125
252522.481693208,0.9183349609375,0.6341552734375,-0.807373046875,-36.07177734375,139.09912109375,93.017578125
252522.522141,0.9183349609375,0.6341552734375,-0.807373046875,-36.07177734375,151.91650390625,93.017578125
252522.52235625,0.9183349609375,0.6341552734375,-0.807373046875,-36.07177734375,151.91650390625,96.00830078125
252522.523092583,0.8665771484375,0.6341552734375,-0.807373046875,-36.07177734375,151.91650390625,96.00830078125
252522.523286375,0.8665771484375,0.6195068359375,-0.807373046875,-36.07177734375,151.91650390625,96.00830078125
252522.551982666,0.8665771484375,0.6195068359375,-0.807373046875,-36.07177734375,162.53662109375,96.00830078125
252522.552152916,0.8665771484375,0.6195068359375,-0.807373046875,-36.07177734375,162.53662109375,98.93798828125
252522.552949791,0.8031005859375,0.6195068359375,-0.807373046875,-36.07177734375,162.53662109375,98.93798828125
252522.553102666,0.8031005859375,0.662841796875,-0.807373046875,-36.07177734375,162.53662109375,98.93798828125
252522.567167291,0.8031005859375,0.662841796875,-0.807373046875,-36.07177734375,177.18505859375,98.93798828125
252522.567311625,0.8031005859375,0.662841796875,-0.807373046875,-36.07177734375,177.18505859375,104.248046875
252522.597268041,0.6500244140625,0.662841796875,-0.807373046875,-36.07177734375,177.18505859375,104.248046875
252522.597473166,0.6500244140625,0.6092529296875,-0.807373046875,-36.07177734375,177.18505859375,104.248046875
252522.598109541,0.6500244140625,0.6092529296875,-0.84228515625,-36.07177734375,177.18505859375,104.248046875
252522.598289375,0.6500244140625,0.6092529296875,-0.84228515625,1.15966796875,177.18505859375,104.248046875
252522.615089083,0.553955078125,0.6092529296875,-0.84228515625,1.15966796875,177.18505859375,104.248046875
252522.615171041,0.553955078125,0.6077880859375,-0.84228515625,1.15966796875,177.18505859375,104.248046875
252522.615242375,0.553955078125,0.6077880859375,-0.91162109375,1.15966796875,177.18505859375,104.248046875
252522.631849166,0.553955078125,0.6077880859375,-0.91162109375,1.15966796875,183.65478515625,104.248046875
252522.63192875,0.553955078125,0.6077880859375,-0.91162109375,1.15966796875,183.65478515625,103.759765625
252522.703241,0.46435546875,0.6077880859375,-0.91162109375,1.15966796875,183.65478515625,103.759765625
252522.703669125,0.46435546875,0.5244140625,-0.91162109375,1.15966796875,183.65478515625,103.759765625
252522.703793791,0.46435546875,0.5244140625,-0.989990234375,1.15966796875,183.65478515625,103.759765625
252522.710097791,0.46435546875,0.5244140625,-0.989990234375,1.15966796875,185.4248046875,103.759765625
252522.7324185,0.20556640625,0.5244140625,-0.989990234375,1.15966796875,185.4248046875,103.759765625
252522.732627333,0.20556640625,0.606689453125,-0.989990234375,1.15966796875,185.4248046875,103.759765625
252522.7493315,0.20556640625,0.606689453125,-1.089111328125,1.15966796875,185.4248046875,103.759765625
252522.749428958,0.20556640625,0.606689453125,-1.089111328125,9.33837890625,185.4248046875,103.759765625
252522.7495495,0.0921630859375,0.606689453125,-1.089111328125,9.33837890625,185.4248046875,103.759765625
252522.749635416,0.0921630859375,0.463134765625,-1.089111328125,9.33837890625,185.4248046875,103.759765625
252522.765630083,0.0921630859375,0.463134765625,-1.089111328125,9.27734375,185.4248046875,103.759765625
252522.765726791,0.0921630859375,0.463134765625,-1.089111328125,9.27734375,209.04541015625,103.759765625
252522.782152958,0.0921630859375,0.463134765625,-1.089111328125,9.27734375,209.04541015625,84.65576171875
252522.792555625,-0.0596923828125,0.463134765625,-1.089111328125,9.27734375,209.04541015625,84.65576171875
252522.798617041,-0.0596923828125,0.526611328125,-1.089111328125,9.27734375,209.04541015625,84.65576171875
252522.798787208,-0.0596923828125,0.526611328125,-0.83056640625,9.27734375,209.04541015625,84.65576171875
252522.807405375,-0.0596923828125,0.526611328125,-0.83056640625,9.27734375,217.22412109375,84.65576171875
252522.8075795,-0.0596923828125,0.526611328125,-0.83056640625,9.27734375,217.22412109375,82.70263671875
