Timestamp,Accel_X,Accel_Y,Accel_Z,Gyro_X,Gyro_Y,Gyro_Z
36365.38711925,-0.2742919921875,0.0,0.0,0.0,0.0,0.0
36365.410476125,-0.2891845703125,0.0,0.0,0.0,0.0,0.0
36365.430896416,-0.3072509765625,0.0,0.0,0.0,0.0,0.0
36365.431020208,-0.3072509765625,-0.0838623046875,0.0,0.0,0.0,0.0
36365.461043291,-0.2867431640625,-0.0838623046875,0.0,0.0,0.0,0.0
36365.477002166,-0.2867431640625,-0.0294189453125,0.0,0.0,0.0,0.0
36365.494142458,-0.274169921875,-0.0294189453125,0.0,0.0,0.0,0.0
36365.494222041,-0.274169921875,0.00537109375,0.0,0.0,0.0,0.0
36365.510706958,-0.2989501953125,0.00537109375,0.0,0.0,0.0,0.0
36365.510784791,-0.2989501953125,-0.0037841796875,0.0,0.0,0.0,0.0
36365.510852583,-0.2989501953125,-0.0037841796875,0.970947265625,0.0,0.0,0.0
36365.520597166,-0.29931640625,-0.0037841796875,0.970947265625,0.0,0.0,0.0
36365.526754541,-0.29931640625,-0.03515625,0.970947265625,0.0,0.0,0.0
36365.550625458,-0.31103515625,-0.03515625,0.970947265625,0.0,0.0,0.0
36365.550803833,-0.31103515625,-0.035400390625,0.970947265625,0.0,0.0,0.0
36365.551450458,-0.31103515625,-0.035400390625,0.9503173828125,0.0,0.0,0.0
36365.551602958,-0.31103515625,-0.035400390625,0.9503173828125,-7.9345703125,0.0,0.0
36365.566844083,-0.358154296875,-0.035400390625,0.9503173828125,-7.9345703125,0.0,0.0
36365.566974833,-0.358154296875,-0.025146484375,0.9503173828125,-7.9345703125,0.0,0.0
36365.581519625,-0.358154296875,-0.025146484375,0.9503173828125,-11.90185546875,0.0,0.0
36365.581697458,-0.358154296875,-0.025146484375,0.9503173828125,-11.90185546875,-16.66259765625,0.0
36365.610967791,-0.31591796875,-0.025146484375,0.9503173828125,-11.90185546875,-16.66259765625,0.0
36365.614399708,-0.31591796875,0.03955078125,0.9503173828125,-11.90185546875,-16.66259765625,0.0
36365.614618375,-0.31591796875,0.03955078125,0.9068603515625,-11.90185546875,-16.66259765625,0.0
36365.640562416,-0.29541015625,0.03955078125,0.9068603515625,-11.90185546875,-16.66259765625,0.0
36365.640767666,-0.29541015625,0.0458984375,0.9068603515625,-11.90185546875,-16.66259765625,0.0
36365.641455,-0.29541015625,0.0458984375,0.925537109375,-11.90185546875,-16.66259765625,0.0
36365.641639666,-0.29541015625,0.0458984375,0.925537109375,-11.90185546875,-15.625,0.0
36365.660249875,-0.2664794921875,0.0458984375,0.925537109375,-11.90185546875,-15.625,0.0
36365.660329583,-0.2664794921875,0.0330810546875,0.925537109375,-11.90185546875,-15.625,0.0
36365.660401333,-0.2664794921875,0.0330810546875,0.93798828125,-11.90185546875,-15.625,0.0
36365.670676916,-0.2664794921875,0.0330810546875,0.93798828125,-11.90185546875,-16.11328125,0.0
36365.676746666,-0.2664794921875,0.0330810546875,0.93798828125,-11.90185546875,-16.11328125,-22.15576171875
36365.701027875,-0.261474609375,0.0330810546875,0.93798828125,-11.90185546875,-16.11328125,-22.15576171875
36365.701164958,-0.261474609375,0.098388671875,0.93798828125,-11.90185546875,-16.11328125,-22.15576171875
36365.7029395,-0.261474609375,0.098388671875,0.9583740234375,-11.90185546875,-16.11328125,-22.15576171875
36365.716112958,-0.261474609375,0.098388671875,0.9583740234375,-11.90185546875,-16.9677734375,-22.15576171875
36365.716257375,-0.261474609375,0.098388671875,0.9583740234375,-11.90185546875,-16.9677734375,-15.9912109375
36365.730357083,-0.260986328125,0.098388671875,0.9583740234375,-11.90185546875,-16.9677734375,-15.9912109375
36365.730489833,-0.260986328125,0.0662841796875,0.9583740234375,-11.90185546875,-16.9677734375,-15.9912109375
36365.732211666,-0.260986328125,0.0662841796875,0.9537353515625,-11.90185546875,-16.9677734375,-15.9912109375
36365.746014833,-0.260986328125,0.0662841796875,0.9537353515625,-11.90185546875,-17.2119140625,-15.9912109375
36365.74615825,-0.260986328125,0.0662841796875,0.9537353515625,-11.90185546875,-17.2119140625,-12.8173828125
36365.760103083,-0.2650146484375,0.0662841796875,0.9537353515625,-11.90185546875,-17.2119140625,-12.8173828125
36365.760256375,-0.2650146484375,0.05126953125,0.9537353515625,-11.90185546875,-17.2119140625,-12.8173828125
36365.7610435,-0.2650146484375,0.05126953125,0.953369140625,-11.90185546875,-17.2119140625,-12.8173828125
36365.776283708,-0.2650146484375,0.05126953125,0.953369140625,-11.90185546875,-17.51708984375,-12.8173828125
36365.776359166,-0.2650146484375,0.05126953125,0.953369140625,-11.90185546875,-17.51708984375,-11.53564453125
36365.792854958,-0.2760009765625,0.05126953125,0.953369140625,-11.90185546875,-17.51708984375,-11.53564453125
36365.79293375,-0.2760009765625,0.0797119140625,0.953369140625,-11.90185546875,-17.51708984375,-11.53564453125
36365.792995458,-0.2760009765625,0.0797119140625,0.941162109375,-11.90185546875,-17.51708984375,-11.53564453125
36365.809623875,-0.2760009765625,0.0797119140625,0.941162109375,-11.90185546875,-17.76123046875,-11.53564453125
36365.809728041,-0.2760009765625,0.0797119140625,0.941162109375,-11.90185546875,-17.76123046875,-9.46044921875
36365.820267666,-0.298828125,0.0797119140625,0.941162109375,-11.90185546875,-17.76123046875,-9.46044921875
36365.826255125,-0.298828125,0.0452880859375,0.941162109375,-11.90185546875,-17.76123046875,-9.46044921875
36365.826360083,-0.298828125,0.0452880859375,0.965576171875,-11.90185546875,-17.76123046875,-9.46044921875
36365.835666541,-0.298828125,0.0452880859375,0.965576171875,-11.90185546875,-17.63916015625,-9.46044921875
36365.835850208,-0.298828125,0.0452880859375,0.965576171875,-11.90185546875,-17.63916015625,-7.8125
36365.850351875,-0.30859375,0.0452880859375,0.965576171875,-11.90185546875,-17.63916015625,-7.8125
36365.850488125,-0.30859375,0.04931640625,0.965576171875,-11.90185546875,-17.63916015625,-7.8125
36365.865229125,-0.30859375,0.04931640625,0.9683837890625,-11.90185546875,-17.63916015625,-7.8125
36365.865403666,-0.30859375,0.04931640625,0.9683837890625,-11.90185546875,-18.49365234375,-7.8125
36365.865492583,-0.30859375,0.04931640625,0.9683837890625,-11.90185546875,-18.49365234375,-7.50732421875
36365.89524975,-0.3145751953125,0.04931640625,0.9683837890625,-11.90185546875,-18.49365234375,-7.50732421875
36365.897542416,-0.3145751953125,0.0537109375,0.9683837890625,-11.90185546875,-18.49365234375,-7.50732421875
36365.897731041,-0.3145751953125,0.0537109375,0.940673828125,-11.90185546875,-18.49365234375,-7.50732421875
36365.897827833,-0.3145751953125,0.0537109375,0.940673828125,-11.90185546875,-18.49365234375,-7.50732421875
36365.91020175,-0.327880859375,0.0537109375,0.940673828125,-11.90185546875,-18.49365234375,-7.50732421875
36365.910346166,-0.327880859375,0.056640625,0.940673828125,-11.90185546875,-18.49365234375,-7.50732421875
36365.910886,-0.327880859375,0.056640625,0.9405517578125,-11.90185546875,-18.49365234375,-7.50732421875
36365.92528325,-0.327880859375,0.056640625,0.9405517578125,-11.90185546875,-19.22607421875,-7.50732421875
36365.943007125,-0.327880859375,0.056640625,0.9405517578125,-11.90185546875,-19.22607421875,-7.26318359375
36365.95978425,-0.34033203125,0.056640625,0.9405517578125,-11.90185546875,-19.22607421875,-7.26318359375
36365.95984475,-0.34033203125,0.029052734375,0.9405517578125,-11.90185546875,-19.22607421875,-7.26318359375
36365.959897541,-0.34033203125,0.029052734375,0.9246826171875,-11.90185546875,-19.22607421875,-7.26318359375
36365.959950541,-0.34033203125,0.029052734375,0.9246826171875,10.07080078125,-19.22607421875,-7.26318359375
36365.970131666,-0.3416748046875,0.029052734375,0.9246826171875,10.07080078125,-19.22607421875,-7.26318359375
36365.975943041,-0.3416748046875,0.013916015625,0.9246826171875,10.07080078125,-19.22607421875,-7.26318359375
36365.976038791,-0.3416748046875,0.013916015625,0.9111328125,10.07080078125,-19.22607421875,-7.26318359375
36365.985080541,-0.3416748046875,0.013916015625,0.9111328125,10.07080078125,-18.49365234375,-7.26318359375
36365.985190458,-0.3416748046875,0.013916015625,0.9111328125,10.07080078125,-18.49365234375,-9.58251953125
36366.000676333,-0.357666015625,0.013916015625,0.9111328125,10.07080078125,-18.49365234375,-9.58251953125
36366.000849,-0.357666015625,0.0557861328125,0.9111328125,10.07080078125,-18.49365234375,-9.58251953125
36366.000921416,-0.357666015625,0.0557861328125,0.8917236328125,10.07080078125,-18.49365234375,-9.58251953125
36366.015510458,-0.357666015625,0.0557861328125,0.8917236328125,10.07080078125,-19.10400390625,-9.58251953125
36366.015641041,-0.357666015625,0.0557861328125,0.8917236328125,10.07080078125,-19.10400390625,-10.986328125
36366.030448625,-0.3658447265625,0.0557861328125,0.8917236328125,10.07080078125,-19.10400390625,-10.986328125
36366.030575166,-0.3658447265625,0.056640625,0.8917236328125,10.07080078125,-19.10400390625,-10.986328125
36366.031895,-0.3658447265625,0.056640625,0.9178466796875,10.07080078125,-19.10400390625,-10.986328125
36366.045198541,-0.3658447265625,0.056640625,0.9178466796875,10.07080078125,-18.6767578125,-10.986328125
36366.045325291,-0.3658447265625,0.056640625,0.9178466796875,10.07080078125,-18.6767578125,-12.02392578125
36366.060109375,-0.3670654296875,0.056640625,0.9178466796875,10.07080078125,-18.6767578125,-12.02392578125
36366.060222,-0.3670654296875,-0.0030517578125,0.9178466796875,10.07080078125,-18.6767578125,-12.02392578125
36366.061670541,-0.3670654296875,-0.0030517578125,0.8846435546875,10.07080078125,-18.6767578125,-12.02392578125
36366.076058833,-0.3670654296875,-0.0030517578125,0.8846435546875,10.07080078125,-19.34814453125,-12.02392578125
36366.076178833,-0.3670654296875,-0.0030517578125,0.8846435546875,10.07080078125,-19.34814453125,-12.5732421875
36366.092426833,-0.35986328125,-0.0030517578125,0.8846435546875,10.07080078125,-19.34814453125,-12.5732421875
36366.092479125,-0.35986328125,0.005859375,0.8846435546875,10.07080078125,-19.34814453125,-12.5732421875
36366.092525625,-0.35986328125,0.005859375,0.9005126953125,10.07080078125,-19.34814453125,-12.5732421875
36366.120994,-0.35986328125,0.005859375,0.9005126953125,10.07080078125,-22.64404296875,-12.5732421875
36366.121208458,-0.35986328125,0.005859375,0.9005126953125,10.07080078125,-22.64404296875,-14.404296875
36366.121286,-0.4066162109375,0.005859375,0.9005126953125,10.07080078125,-22.64404296875,-14.404296875
36366.121791125,-0.4066162109375,0.07763671875,0.9005126953125,10.07080078125,-22.64404296875,-14.404296875
36366.142785625,-0.4066162109375,0.07763671875,0.9005126953125,10.07080078125,-28.13720703125,-14.404296875
36366.142841166,-0.4066162109375,0.07763671875,0.9005126953125,10.07080078125,-28.13720703125,-15.869140625
36366.165704333,-0.46484375,0.07763671875,0.9005126953125,10.07080078125,-28.13720703125,-15.869140625
36366.1658375,-0.46484375,0.0828857421875,0.9005126953125,10.07080078125,-28.13720703125,-15.869140625
36366.165895041,-0.46484375,0.0828857421875,0.9854736328125,10.07080078125,-28.13720703125,-15.869140625
36366.166202583,-0.46484375,0.0828857421875,0.9854736328125,10.07080078125,-37.59765625,-15.869140625
36366.195268375,-0.466796875,0.0828857421875,0.9854736328125,10.07080078125,-37.59765625,-15.869140625
36366.19540375,-0.466796875,0.102294921875,0.9854736328125,10.07080078125,-37.59765625,-15.869140625
36366.196757458,-0.466796875,0.102294921875,0.8677978515625,10.07080078125,-37.59765625,-15.869140625
36366.210737583,-0.466796875,0.102294921875,0.8677978515625,10.07080078125,-41.07666015625,-15.869140625
36366.21084675,-0.466796875,0.102294921875,0.8677978515625,10.07080078125,-41.07666015625,-12.8173828125
36366.239164541,-0.4827880859375,0.102294921875,0.8677978515625,10.07080078125,-41.07666015625,-12.8173828125
36366.241007583,-0.4827880859375,0.0909423828125,0.8677978515625,10.07080078125,-41.07666015625,-12.8173828125
36366.255328958,-0.4827880859375,0.0909423828125,0.883544921875,10.07080078125,-41.07666015625,-12.8173828125
36366.255462916,-0.4827880859375,0.0909423828125,0.883544921875,10.07080078125,-39.36767578125,-12.8173828125
36366.255940583,-0.4827880859375,0.0909423828125,0.883544921875,10.07080078125,-39.36767578125,-7.26318359375
36366.2857015,-0.51025390625,0.0909423828125,0.883544921875,10.07080078125,-39.36767578125,-7.26318359375
36366.285855083,-0.51025390625,0.0732421875,0.883544921875,10.07080078125,-39.36767578125,-7.26318359375
36366.293291041,-0.51025390625,0.0732421875,0.775634765625,10.07080078125,-39.36767578125,-7.26318359375
36366.29335825,-0.51025390625,0.0732421875,0.775634765625,10.07080078125,-37.41455078125,-7.26318359375
36366.300667708,-0.5367431640625,0.0732421875,0.775634765625,10.07080078125,-37.41455078125,-7.26318359375
36366.301817791,-0.5367431640625,0.026123046875,0.775634765625,10.07080078125,-37.41455078125,-7.26318359375
36366.301955541,-0.5367431640625,0.026123046875,0.7222900390625,10.07080078125,-37.41455078125,-7.26318359375
36366.314591833,-0.5367431640625,0.026123046875,0.7222900390625,10.07080078125,-32.3486328125,-7.26318359375
36366.315586041,-0.5367431640625,0.026123046875,0.7222900390625,10.07080078125,-32.3486328125,-2.44140625
36366.345309375,-0.5284423828125,0.026123046875,0.7222900390625,10.07080078125,-32.3486328125,-2.44140625
36366.345456208,-0.5284423828125,0.0943603515625,0.7222900390625,10.07080078125,-32.3486328125,-2.44140625
36366.346417208,-0.5284423828125,0.0943603515625,0.7713623046875,10.07080078125,-32.3486328125,-2.44140625
36366.359647291,-0.5284423828125,0.0943603515625,0.7713623046875,10.07080078125,-19.83642578125,-2.44140625
36366.360460291,-0.5284423828125,0.0943603515625,0.7713623046875,10.07080078125,-19.83642578125,-1.77001953125
36366.390340333,-0.5313720703125,0.0943603515625,0.7713623046875,10.07080078125,-19.83642578125,-1.77001953125
36366.390491208,-0.5313720703125,0.07763671875,0.7713623046875,10.07080078125,-19.83642578125,-1.77001953125
36366.39113,-0.5313720703125,0.07763671875,0.7742919921875,10.07080078125,-19.83642578125,-1.77001953125
36366.4206825,-0.5313720703125,0.07763671875,0.7742919921875,10.07080078125,-10.19287109375,-1.77001953125
36366.420858,-0.5313720703125,0.07763671875,0.7742919921875,10.07080078125,-10.19287109375,1.77001953125
36366.421441791,-0.5360107421875,0.07763671875,0.7742919921875,10.07080078125,-10.19287109375,1.77001953125
36366.421579958,-0.5360107421875,0.056640625,0.7742919921875,10.07080078125,-10.19287109375,1.77001953125
36366.442815041,-0.5360107421875,0.056640625,0.7742919921875,10.07080078125,7.14111328125,1.77001953125
36366.442887875,-0.5360107421875,0.056640625,0.7742919921875,10.07080078125,7.14111328125,4.94384765625
36366.465263458,-0.567626953125,0.056640625,0.7742919921875,10.07080078125,7.14111328125,4.94384765625
36366.465384,-0.567626953125,0.1619873046875,0.7742919921875,10.07080078125,7.14111328125,4.94384765625
36366.465957041,-0.567626953125,0.1619873046875,0.8033447265625,10.07080078125,7.14111328125,4.94384765625
36366.466082541,-0.567626953125,0.1619873046875,0.8033447265625,10.07080078125,20.5078125,4.94384765625
36366.495450083,-0.5526123046875,0.1619873046875,0.8033447265625,10.07080078125,20.5078125,4.94384765625
36366.495596958,-0.5526123046875,0.2130126953125,0.8033447265625,10.07080078125,20.5078125,4.94384765625
36366.497429833,-0.5526123046875,0.2130126953125,0.8343505859375,10.07080078125,20.5078125,4.94384765625
36366.500309708,-0.5526123046875,0.2130126953125,0.8343505859375,10.07080078125,35.33935546875,4.94384765625
36366.526197541,-0.5233154296875,0.2130126953125,0.8343505859375,10.07080078125,35.33935546875,4.94384765625
36366.5262575,-0.5233154296875,-0.151123046875,0.8343505859375,10.07080078125,35.33935546875,4.94384765625
36366.526310208,-0.5233154296875,-0.151123046875,0.828369140625,10.07080078125,35.33935546875,4.94384765625
36366.526453125,-0.5233154296875,-0.151123046875,0.828369140625,50.59814453125,35.33935546875,4.94384765625
36366.555488958,-0.462890625,-0.151123046875,0.828369140625,50.59814453125,35.33935546875,4.94384765625
36366.555641791,-0.462890625,-0.30224609375,0.828369140625,50.59814453125,35.33935546875,4.94384765625
36366.556581375,-0.462890625,-0.30224609375,0.61279296875,50.59814453125,35.33935546875,4.94384765625
36366.55666325,-0.462890625,-0.30224609375,0.61279296875,-6.04248046875,35.33935546875,4.94384765625
36366.58567925,-0.418212890625,-0.30224609375,0.61279296875,-6.04248046875,35.33935546875,4.94384765625
36366.5858135,-0.418212890625,-0.1669921875,0.61279296875,-6.04248046875,35.33935546875,4.94384765625
36366.592983416,-0.418212890625,-0.1669921875,0.7353515625,-6.04248046875,35.33935546875,4.94384765625
36366.593040625,-0.418212890625,-0.1669921875,0.7353515625,-6.04248046875,73.974609375,4.94384765625
36366.600632625,-0.4229736328125,-0.1669921875,0.7353515625,-6.04248046875,73.974609375,4.94384765625
36366.616285,-0.4229736328125,-0.176025390625,0.7353515625,-6.04248046875,73.974609375,4.94384765625
36366.616441166,-0.4229736328125,-0.176025390625,0.813720703125,-6.04248046875,73.974609375,4.94384765625
36366.616538125,-0.4229736328125,-0.176025390625,0.813720703125,-6.04248046875,83.43505859375,4.94384765625
36366.617107791,-0.4229736328125,-0.176025390625,0.813720703125,-6.04248046875,83.43505859375,37.53662109375
36366.645434208,-0.33154296875,-0.176025390625,0.813720703125,-6.04248046875,83.43505859375,37.53662109375
36366.645600125,-0.33154296875,0.12255859375,0.813720703125,-6.04248046875,83.43505859375,37.53662109375
36366.64568775,-0.33154296875,0.12255859375,0.9586181640625,-6.04248046875,83.43505859375,37.53662109375
36366.646183083,-0.33154296875,0.12255859375,0.9586181640625,-22.64404296875,83.43505859375,37.53662109375
36366.660646458,-0.2213134765625,0.12255859375,0.9586181640625,-22.64404296875,83.43505859375,37.53662109375
36366.660796416,-0.2213134765625,0.151123046875,0.9586181640625,-22.64404296875,83.43505859375,37.53662109375
36366.660848166,-0.2213134765625,0.151123046875,1.00048828125,-22.64404296875,83.43505859375,37.53662109375
36366.676487375,-0.2213134765625,0.151123046875,1.00048828125,-22.64404296875,85.44921875,37.53662109375
36366.676545666,-0.2213134765625,0.151123046875,1.00048828125,-22.64404296875,85.44921875,42.29736328125
36366.692671375,-0.211669921875,0.151123046875,1.00048828125,-22.64404296875,85.44921875,42.29736328125
36366.692732875,-0.211669921875,-0.175048828125,1.00048828125,-22.64404296875,85.44921875,42.29736328125
36366.720924083,-0.211669921875,-0.175048828125,0.9427490234375,-22.64404296875,85.44921875,42.29736328125
36366.726077875,-0.211669921875,-0.175048828125,0.9427490234375,-22.64404296875,73.3642578125,42.29736328125
36366.735304791,-0.211669921875,-0.175048828125,0.9427490234375,-22.64404296875,73.3642578125,33.75244140625
36366.735426416,-0.1817626953125,-0.175048828125,0.9427490234375,-22.64404296875,73.3642578125,33.75244140625
36366.742816958,-0.1817626953125,-0.175048828125,0.9427490234375,-34.1796875,73.3642578125,33.75244140625
36366.74287525,-0.1817626953125,-0.175048828125,0.9427490234375,-34.1796875,65.673828125,33.75244140625
36366.750244583,-0.1424560546875,-0.175048828125,0.9427490234375,-34.1796875,65.673828125,33.75244140625
36366.750371458,-0.1424560546875,0.2259521484375,0.9427490234375,-34.1796875,65.673828125,33.75244140625
36366.750934041,-0.1424560546875,0.2259521484375,1.061279296875,-34.1796875,65.673828125,33.75244140625
36366.765331333,-0.1424560546875,0.2259521484375,1.061279296875,-34.1796875,53.16162109375,33.75244140625
36366.765455416,-0.1424560546875,0.2259521484375,1.061279296875,-34.1796875,53.16162109375,24.23095703125
36366.781129541,-0.1051025390625,0.2259521484375,1.061279296875,-34.1796875,53.16162109375,24.23095703125
36366.781296833,-0.1051025390625,0.0374755859375,1.061279296875,-34.1796875,53.16162109375,24.23095703125
36366.781378166,-0.1051025390625,0.0374755859375,0.9195556640625,-34.1796875,53.16162109375,24.23095703125
36366.7955825,-0.1051025390625,0.0374755859375,0.9195556640625,-34.1796875,49.13330078125,24.23095703125
36366.795715833,-0.1051025390625,0.0374755859375,0.9195556640625,-34.1796875,49.13330078125,26.85546875
36366.825438291,-0.0875244140625,0.0374755859375,0.9195556640625,-34.1796875,49.13330078125,26.85546875
36366.825583125,-0.0875244140625,-0.1861572265625,0.9195556640625,-34.1796875,49.13330078125,26.85546875
36366.826844083,-0.0875244140625,-0.1861572265625,0.9273681640625,-34.1796875,49.13330078125,26.85546875
36366.826969,-0.0875244140625,-0.1861572265625,0.9273681640625,-34.1796875,43.8232421875,26.85546875
36366.8428105,-0.0223388671875,-0.1861572265625,0.9273681640625,-34.1796875,43.8232421875,26.85546875
36366.842868583,-0.0223388671875,0.046142578125,0.9273681640625,-34.1796875,43.8232421875,26.85546875
36366.842915791,-0.0223388671875,0.046142578125,1.1124267578125,-34.1796875,43.8232421875,26.85546875
36366.859555333,-0.0223388671875,0.046142578125,1.1124267578125,-34.1796875,37.65869140625,26.85546875
36366.859607416,-0.0223388671875,0.046142578125,1.1124267578125,-34.1796875,37.65869140625,14.7705078125
36366.876035833,-0.01123046875,0.046142578125,1.1124267578125,-34.1796875,37.65869140625,14.7705078125
36366.876094583,-0.01123046875,0.129150390625,1.1124267578125,-34.1796875,37.65869140625,14.7705078125
36366.915360708,-0.01123046875,0.129150390625,1.1124267578125,-34.1796875,22.3388671875,14.7705078125
36366.915541375,-0.01123046875,0.129150390625,1.1124267578125,-34.1796875,22.3388671875,18.1884765625
36366.917050166,-0.0213623046875,0.129150390625,1.1124267578125,-34.1796875,22.3388671875,18.1884765625
36366.945446,-0.0213623046875,-0.0621337890625,1.1124267578125,-34.1796875,22.3388671875,18.1884765625
36366.945618583,-0.0213623046875,-0.0621337890625,1.1124267578125,-34.1796875,12.0849609375,18.1884765625
36366.945707,-0.0213623046875,-0.0621337890625,1.1124267578125,-34.1796875,12.0849609375,13.97705078125
36366.946124666,-0.0169677734375,-0.0621337890625,1.1124267578125,-34.1796875,12.0849609375,13.97705078125
36366.961036125,-0.0169677734375,-0.0621337890625,1.1124267578125,-9.765625,12.0849609375,13.97705078125
36366.961195791,-0.0169677734375,-0.0621337890625,1.1124267578125,-9.765625,2.50244140625,13.97705078125
36366.961280708,-0.0169677734375,-0.0621337890625,1.1124267578125,-9.765625,2.50244140625,7.26318359375
36366.993475083,-0.0189208984375,-0.0621337890625,1.1124267578125,-9.765625,2.50244140625,7.26318359375
36366.993534791,-0.0189208984375,-0.0177001953125,1.1124267578125,-9.765625,2.50244140625,7.26318359375
36366.993583875,-0.0189208984375,-0.0177001953125,0.97216796875,-9.765625,2.50244140625,7.26318359375
36366.993630083,-0.0189208984375,-0.0177001953125,0.97216796875,-7.32421875,2.50244140625,7.26318359375
36367.009691375,-0.0306396484375,-0.0177001953125,0.97216796875,-7.32421875,2.50244140625,7.26318359375
36367.009755125,-0.0306396484375,-0.02001953125,0.97216796875,-7.32421875,2.50244140625,7.26318359375
36367.009804083,-0.0306396484375,-0.02001953125,0.9622802734375,-7.32421875,2.50244140625,7.26318359375
36367.0263265,-0.0306396484375,-0.02001953125,0.9622802734375,-7.32421875,-3.5400390625,7.26318359375
36367.026389541,-0.0306396484375,-0.02001953125,0.9622802734375,-7.32421875,-3.5400390625,2.3193359375
36367.05102175,-0.019287109375,-0.02001953125,0.9622802734375,-7.32421875,-3.5400390625,2.3193359375
36367.051179625,-0.019287109375,-0.01953125,0.9622802734375,-7.32421875,-3.5400390625,2.3193359375
36367.051233208,-0.019287109375,-0.01953125,0.9854736328125,-7.32421875,-3.5400390625,2.3193359375
36367.051629791,-0.019287109375,-0.01953125,0.9854736328125,-7.32421875,-3.35693359375,2.3193359375
36367.065592833,-0.0135498046875,-0.01953125,0.9854736328125,-7.32421875,-3.35693359375,2.3193359375
36367.065778,-0.0135498046875,-0.0262451171875,0.9854736328125,-7.32421875,-3.35693359375,2.3193359375
36367.065838458,-0.0135498046875,-0.0262451171875,0.98974609375,-7.32421875,-3.35693359375,2.3193359375
36367.080594083,-0.0135498046875,-0.0262451171875,0.98974609375,-7.32421875,-3.41796875,2.3193359375
36367.080749541,-0.0135498046875,-0.0262451171875,0.98974609375,-7.32421875,-3.41796875,0.732421875
36367.09525675,-0.025146484375,-0.0262451171875,0.98974609375,-7.32421875,-3.41796875,0.732421875
36367.095392083,-0.025146484375,-0.030517578125,0.98974609375,-7.32421875,-3.41796875,0.732421875
36367.095941041,-0.025146484375,-0.030517578125,0.9815673828125,-7.32421875,-3.41796875,0.732421875
36367.110570125,-0.025146484375,-0.030517578125,0.9815673828125,-7.32421875,-4.5166015625,0.732421875
36367.110698208,-0.025146484375,-0.030517578125,0.9815673828125,-7.32421875,-4.5166015625,-1.220703125
36367.126007541,-0.0087890625,-0.030517578125,0.9815673828125,-7.32421875,-4.5166015625,-1.220703125
36367.126061125,-0.0087890625,-0.01025390625,0.9815673828125,-7.32421875,-4.5166015625,-1.220703125
36367.126107625,-0.0087890625,-0.01025390625,0.9915771484375,-7.32421875,-4.5166015625,-1.220703125
NEW_REP,,,,,,
36367.143431125,-0.0087890625,-0.01025390625,0.9915771484375,-7.32421875,-4.69970703125,-1.220703125
36367.143489916,-0.0087890625,-0.01025390625,0.9915771484375,-7.32421875,-4.69970703125,-1.3427734375
36367.1600535,-0.0142822265625,-0.01025390625,0.9915771484375,-7.32421875,-4.69970703125,-1.3427734375
36367.160112041,-0.0142822265625,-0.041259765625,0.9915771484375,-7.32421875,-4.69970703125,-1.3427734375
36367.160160541,-0.0142822265625,-0.041259765625,1.007568359375,-7.32421875,-4.69970703125,-1.3427734375
36367.170620083,-0.0142822265625,-0.041259765625,1.007568359375,-7.32421875,-7.6904296875,-1.3427734375
36367.176102541,-0.0142822265625,-0.041259765625,1.007568359375,-7.32421875,-7.6904296875,-2.197265625
36367.20063175,-0.02587890625,-0.041259765625,1.007568359375,-7.32421875,-7.6904296875,-2.197265625
36367.202366791,-0.02587890625,-0.0186767578125,1.007568359375,-7.32421875,-7.6904296875,-2.197265625
36367.202531791,-0.02587890625,-0.0186767578125,1.0006103515625,-7.32421875,-7.6904296875,-2.197265625
36367.202620083,-0.02587890625,-0.0186767578125,1.0006103515625,-1.8310546875,-7.6904296875,-2.197265625
36367.245676166,-0.0361328125,-0.0186767578125,1.0006103515625,-1.8310546875,-7.6904296875,-2.197265625
36367.245804041,-0.0361328125,0.0225830078125,1.0006103515625,-1.8310546875,-7.6904296875,-2.197265625
36367.245881958,-0.0361328125,0.0225830078125,1.005615234375,-1.8310546875,-7.6904296875,-2.197265625
36367.246251375,-0.0361328125,0.0225830078125,1.005615234375,-3.35693359375,-7.6904296875,-2.197265625
36367.276781166,-0.0423583984375,0.0225830078125,1.005615234375,-3.35693359375,-7.6904296875,-2.197265625
36367.27709075,-0.0423583984375,0.0074462890625,1.005615234375,-3.35693359375,-7.6904296875,-2.197265625
36367.277202333,-0.0423583984375,0.0074462890625,1.010498046875,-3.35693359375,-7.6904296875,-2.197265625
36367.277539875,-0.0423583984375,0.0074462890625,1.010498046875,-3.35693359375,-19.287109375,-2.197265625
36367.277646083,-0.0423583984375,0.0074462890625,1.010498046875,-3.35693359375,-19.287109375,-9.09423828125
36367.305643333,-0.0740966796875,0.0074462890625,1.010498046875,-3.35693359375,-19.287109375,-9.09423828125
36367.305754458,-0.0740966796875,-0.023193359375,1.010498046875,-3.35693359375,-19.287109375,-9.09423828125
36367.305811458,-0.0740966796875,-0.023193359375,0.9886474609375,-3.35693359375,-19.287109375,-9.09423828125
36367.306225375,-0.0740966796875,-0.023193359375,0.9886474609375,5.4931640625,-19.287109375,-9.09423828125
36367.326623625,-0.09521484375,-0.023193359375,0.9886474609375,5.4931640625,-19.287109375,-9.09423828125
36367.326688708,-0.09521484375,-0.0074462890625,0.9886474609375,5.4931640625,-19.287109375,-9.09423828125
36367.326741958,-0.09521484375,-0.0074462890625,1.05078125,5.4931640625,-19.287109375,-9.09423828125
36367.335630875,-0.09521484375,-0.0074462890625,1.05078125,5.4931640625,-34.48486328125,-9.09423828125
36367.335734833,-0.09521484375,-0.0074462890625,1.05078125,5.4931640625,-34.48486328125,-15.2587890625
36367.350452583,-0.11376953125,-0.0074462890625,1.05078125,5.4931640625,-34.48486328125,-15.2587890625
36367.350589541,-0.11376953125,-0.0107421875,1.05078125,5.4931640625,-34.48486328125,-15.2587890625
36367.351263583,-0.11376953125,-0.0107421875,1.060302734375,5.4931640625,-34.48486328125,-15.2587890625
36367.365356875,-0.11376953125,-0.0107421875,1.060302734375,5.4931640625,-43.45703125,-15.2587890625
36367.3654825,-0.11376953125,-0.0107421875,1.060302734375,5.4931640625,-43.45703125,-20.32470703125
36367.381216916,-0.1192626953125,-0.0107421875,1.060302734375,5.4931640625,-43.45703125,-20.32470703125
36367.381759,-0.1192626953125,0.0152587890625,1.060302734375,5.4931640625,-43.45703125,-20.32470703125
36367.381858791,-0.1192626953125,0.0152587890625,1.09814453125,5.4931640625,-43.45703125,-20.32470703125
36367.395748333,-0.1192626953125,0.0152587890625,1.09814453125,5.4931640625,-57.9833984375,-20.32470703125
36367.395876375,-0.1192626953125,0.0152587890625,1.09814453125,5.4931640625,-57.9833984375,-24.5361328125
36367.410334375,-0.1888427734375,0.0152587890625,1.09814453125,5.4931640625,-57.9833984375,-24.5361328125
36367.410432375,-0.1888427734375,-0.0247802734375,1.09814453125,5.4931640625,-57.9833984375,-24.5361328125
36367.410988875,-0.1888427734375,-0.0247802734375,1.126953125,5.4931640625,-57.9833984375,-24.5361328125
36367.426300958,-0.1888427734375,-0.0247802734375,1.126953125,5.4931640625,-77.20947265625,-24.5361328125
36367.426359375,-0.1888427734375,-0.0247802734375,1.126953125,5.4931640625,-77.20947265625,-26.85546875
36367.456390958,-0.245361328125,-0.0247802734375,1.126953125,5.4931640625,-77.20947265625,-26.85546875
36367.470509083,-0.245361328125,-0.055419921875,1.126953125,5.4931640625,-77.20947265625,-26.85546875
36367.470669333,-0.245361328125,-0.055419921875,1.1146240234375,5.4931640625,-77.20947265625,-26.85546875
36367.471323416,-0.245361328125,-0.055419921875,1.1146240234375,5.4931640625,-91.064453125,-26.85546875
36367.471450958,-0.333984375,-0.055419921875,1.1146240234375,5.4931640625,-91.064453125,-26.85546875
36367.493411625,-0.333984375,-0.055419921875,1.0970458984375,5.4931640625,-91.064453125,-26.85546875
36367.493475375,-0.333984375,-0.055419921875,1.0970458984375,-21.42333984375,-91.064453125,-26.85546875
36367.493532208,-0.333984375,-0.055419921875,1.0970458984375,-21.42333984375,-110.9619140625,-26.85546875
36367.529254208,-0.40380859375,-0.055419921875,1.0970458984375,-21.42333984375,-110.9619140625,-26.85546875
36367.534618583,-0.40380859375,0.02880859375,1.0970458984375,-21.42333984375,-110.9619140625,-26.85546875
36367.534684958,-0.40380859375,0.02880859375,1.07568359375,-21.42333984375,-110.9619140625,-26.85546875
36367.534746333,-0.40380859375,0.02880859375,1.07568359375,-21.42333984375,-124.267578125,-26.85546875
36367.560003458,-0.543212890625,0.02880859375,1.07568359375,-21.42333984375,-124.267578125,-26.85546875
36367.560064208,-0.543212890625,-0.12255859375,1.07568359375,-21.42333984375,-124.267578125,-26.85546875
36367.560685125,-0.543212890625,-0.12255859375,0.9822998046875,-21.42333984375,-124.267578125,-26.85546875
36367.560825291,-0.543212890625,-0.12255859375,0.9822998046875,-21.42333984375,-148.01025390625,-26.85546875
36367.561556833,-0.543212890625,-0.12255859375,0.9822998046875,-21.42333984375,-148.01025390625,-25.08544921875
36367.589921166,-0.6195068359375,-0.12255859375,0.9822998046875,-21.42333984375,-148.01025390625,-25.08544921875
36367.591384083,-0.6195068359375,-0.0810546875,0.9822998046875,-21.42333984375,-148.01025390625,-25.08544921875
36367.591509583,-0.6195068359375,-0.0810546875,0.8907470703125,-21.42333984375,-148.01025390625,-25.08544921875
36367.620669125,-0.6195068359375,-0.0810546875,0.8907470703125,-21.42333984375,-156.982421875,-25.08544921875
36367.62084625,-0.6195068359375,-0.0810546875,0.8907470703125,-21.42333984375,-156.982421875,-19.04296875
36367.635279541,-0.728271484375,-0.0810546875,0.8907470703125,-21.42333984375,-156.982421875,-19.04296875
36367.635439875,-0.728271484375,0.080322265625,0.8907470703125,-21.42333984375,-156.982421875,-19.04296875
36367.636058041,-0.728271484375,0.080322265625,0.8160400390625,-21.42333984375,-156.982421875,-19.04296875
36367.665806833,-0.81298828125,0.080322265625,0.8160400390625,-21.42333984375,-156.982421875,-19.04296875
36367.665886666,-0.81298828125,-0.041015625,0.8160400390625,-21.42333984375,-156.982421875,-19.04296875
36367.666266791,-0.81298828125,-0.041015625,0.663818359375,-21.42333984375,-156.982421875,-19.04296875
36367.666410291,-0.81298828125,-0.041015625,0.663818359375,41.56494140625,-156.982421875,-19.04296875
36367.693928708,-0.9222412109375,-0.041015625,0.663818359375,41.56494140625,-156.982421875,-19.04296875
36367.694070208,-0.9222412109375,-0.0684814453125,0.663818359375,41.56494140625,-156.982421875,-19.04296875
36367.694132375,-0.9222412109375,-0.0684814453125,0.485595703125,41.56494140625,-156.982421875,-19.04296875
36367.710685,-0.9222412109375,-0.0684814453125,0.485595703125,41.56494140625,-143.37158203125,-19.04296875
36367.710757958,-0.9222412109375,-0.0684814453125,0.485595703125,41.56494140625,-143.37158203125,15.2587890625
36367.727084416,-1.007568359375,-0.0684814453125,0.485595703125,41.56494140625,-143.37158203125,15.2587890625
36367.727153458,-1.007568359375,-0.062744140625,0.485595703125,41.56494140625,-143.37158203125,15.2587890625
36367.727285541,-1.007568359375,-0.062744140625,0.412353515625,41.56494140625,-143.37158203125,15.2587890625
36367.755542458,-1.046630859375,-0.062744140625,0.412353515625,41.56494140625,-143.37158203125,15.2587890625
36367.755700083,-1.046630859375,-0.040771484375,0.412353515625,41.56494140625,-143.37158203125,15.2587890625
36367.756261041,-1.046630859375,-0.040771484375,0.4266357421875,41.56494140625,-143.37158203125,15.2587890625
36367.756400916,-1.046630859375,-0.040771484375,0.4266357421875,-6.04248046875,-143.37158203125,15.2587890625
36367.785695625,-1.0809326171875,-0.040771484375,0.4266357421875,-6.04248046875,-143.37158203125,15.2587890625
36367.787167916,-1.0809326171875,-0.0374755859375,0.4266357421875,-6.04248046875,-143.37158203125,15.2587890625
36367.794042166,-1.0809326171875,-0.0374755859375,0.4539794921875,-6.04248046875,-143.37158203125,15.2587890625
36367.794148541,-1.0809326171875,-0.0374755859375,0.4539794921875,-6.04248046875,-78.61328125,15.2587890625
36367.800106541,-1.1436767578125,-0.0374755859375,0.4539794921875,-6.04248046875,-78.61328125,15.2587890625
36367.800253416,-1.1436767578125,-0.112548828125,0.4539794921875,-6.04248046875,-78.61328125,15.2587890625
36367.801043708,-1.1436767578125,-0.112548828125,0.3863525390625,-6.04248046875,-78.61328125,15.2587890625
36367.815556625,-1.1436767578125,-0.112548828125,0.3863525390625,-6.04248046875,-64.3310546875,15.2587890625
36367.815684125,-1.1436767578125,-0.112548828125,0.3863525390625,-6.04248046875,-64.3310546875,63.3544921875
36367.84524475,-1.1715087890625,-0.112548828125,0.3863525390625,-6.04248046875,-64.3310546875,63.3544921875
36367.845388125,-1.1715087890625,-0.1317138671875,0.3863525390625,-6.04248046875,-64.3310546875,63.3544921875
36367.846504708,-1.1715087890625,-0.1317138671875,0.314453125,-6.04248046875,-64.3310546875,63.3544921875
36367.860836,-1.1715087890625,-0.1317138671875,0.314453125,31.31103515625,-64.3310546875,63.3544921875
36367.861050791,-1.1715087890625,-0.1317138671875,0.314453125,31.31103515625,-64.3310546875,63.3544921875
36367.861161125,-1.1715087890625,-0.2012939453125,0.314453125,31.31103515625,-64.3310546875,63.3544921875
36367.877013208,-1.1715087890625,-0.2012939453125,0.364501953125,31.31103515625,-64.3310546875,63.3544921875
36367.877082083,-1.1715087890625,-0.2012939453125,0.364501953125,31.31103515625,-30.94482421875,63.3544921875
36367.877143083,-1.1715087890625,-0.2012939453125,0.364501953125,31.31103515625,-30.94482421875,67.2607421875
36367.89370925,-1.1778564453125,-0.2012939453125,0.364501953125,31.31103515625,-30.94482421875,67.2607421875
36367.893773875,-1.1778564453125,-0.28173828125,0.364501953125,31.31103515625,-30.94482421875,67.2607421875
36367.893833541,-1.1778564453125,-0.28173828125,0.3404541015625,31.31103515625,-30.94482421875,67.2607421875
36367.910007166,-1.1778564453125,-0.28173828125,0.3404541015625,31.31103515625,-23.98681640625,67.2607421875
36367.910074541,-1.1778564453125,-0.28173828125,0.3404541015625,31.31103515625,-23.98681640625,62.5
36367.92033425,-1.1275634765625,-0.28173828125,0.3404541015625,31.31103515625,-23.98681640625,62.5
36367.926761916,-1.1275634765625,-0.2841796875,0.3404541015625,31.31103515625,-23.98681640625,62.5
36367.926920458,-1.1275634765625,-0.2841796875,0.33447265625,31.31103515625,-23.98681640625,62.5
36367.935630958,-1.1275634765625,-0.2841796875,0.33447265625,31.31103515625,-16.29638671875,62.5
36367.950659208,-1.1275634765625,-0.2841796875,0.33447265625,31.31103515625,-16.29638671875,52.18505859375
36367.950878375,-1.1334228515625,-0.2841796875,0.33447265625,31.31103515625,-16.29638671875,52.18505859375
36367.9509645,-1.1334228515625,-0.297607421875,0.33447265625,31.31103515625,-16.29638671875,52.18505859375
36367.951268666,-1.1334228515625,-0.297607421875,0.2960205078125,31.31103515625,-16.29638671875,52.18505859375
36367.965720666,-1.1334228515625,-0.297607421875,0.2960205078125,31.31103515625,-12.451171875,52.18505859375
36367.965877708,-1.1334228515625,-0.297607421875,0.2960205078125,31.31103515625,-12.451171875,42.41943359375
36368.010879541,-1.137451171875,-0.297607421875,0.2960205078125,31.31103515625,-12.451171875,42.41943359375
36368.011148875,-1.137451171875,-0.2332763671875,0.2960205078125,31.31103515625,-12.451171875,42.41943359375
36368.011239791,-1.137451171875,-0.2332763671875,0.222900390625,31.31103515625,-12.451171875,42.41943359375
36368.01146925,-1.137451171875,-0.2332763671875,0.222900390625,31.31103515625,-5.2490234375,42.41943359375
36368.043592625,-1.0517578125,-0.2332763671875,0.222900390625,31.31103515625,-5.2490234375,42.41943359375
36368.043665166,-1.0517578125,-0.14990234375,0.222900390625,31.31103515625,-5.2490234375,42.41943359375
36368.043726791,-1.0517578125,-0.14990234375,0.24755859375,31.31103515625,-5.2490234375,42.41943359375
36368.043786791,-1.0517578125,-0.14990234375,0.24755859375,31.31103515625,-5.2490234375,23.86474609375
36368.060465458,-0.9576416015625,-0.14990234375,0.24755859375,31.31103515625,-5.2490234375,23.86474609375
36368.060529916,-0.9576416015625,-0.1373291015625,0.24755859375,31.31103515625,-5.2490234375,23.86474609375
36368.060588875,-0.9576416015625,-0.1373291015625,0.28125,31.31103515625,-5.2490234375,23.86474609375
36368.085474125,-0.9576416015625,-0.1373291015625,0.28125,31.31103515625,-1.3427734375,23.86474609375
36368.085624583,-0.9576416015625,-0.1373291015625,0.28125,31.31103515625,-1.3427734375,4.2724609375
36368.086659416,-0.9918212890625,-0.1373291015625,0.28125,31.31103515625,-1.3427734375,4.2724609375
36368.093234875,-0.9918212890625,-0.248046875,0.28125,31.31103515625,-1.3427734375,4.2724609375
36368.115527416,-0.9918212890625,-0.248046875,0.28125,31.31103515625,-1.5869140625,4.2724609375
36368.116835125,-0.9918212890625,-0.248046875,0.28125,31.31103515625,-1.5869140625,-9.033203125
36368.117003166,-0.8919677734375,-0.248046875,0.28125,31.31103515625,-1.5869140625,-9.033203125
36368.117102083,-0.8919677734375,-0.1048583984375,0.28125,31.31103515625,-1.5869140625,-9.033203125
36368.130245083,-0.8919677734375,-0.1048583984375,0.28125,31.31103515625,7.32421875,-9.033203125
36368.130377583,-0.8919677734375,-0.1048583984375,0.28125,31.31103515625,7.32421875,-15.31982421875
36368.145735625,-0.7789306640625,-0.1048583984375,0.28125,31.31103515625,7.32421875,-15.31982421875
36368.145927166,-0.7789306640625,-0.1171875,0.28125,31.31103515625,7.32421875,-15.31982421875
36368.146023083,-0.7789306640625,-0.1171875,0.314453125,31.31103515625,7.32421875,-15.31982421875
36368.175613375,-0.7789306640625,-0.1171875,0.314453125,31.31103515625,8.9111328125,-15.31982421875
36368.175772833,-0.7789306640625,-0.1171875,0.314453125,31.31103515625,8.9111328125,-21.17919921875
36368.176230208,-0.7501220703125,-0.1171875,0.314453125,31.31103515625,8.9111328125,-21.17919921875
36368.193656375,-0.7501220703125,-0.088623046875,0.314453125,31.31103515625,8.9111328125,-21.17919921875
36368.21048275,-0.7501220703125,-0.088623046875,0.314453125,31.31103515625,3.2958984375,-21.17919921875
36368.210552291,-0.7501220703125,-0.088623046875,0.314453125,31.31103515625,3.2958984375,-27.34375
36368.219470583,-0.7579345703125,-0.088623046875,0.314453125,31.31103515625,3.2958984375,-27.34375
36368.22006825,-0.7579345703125,-0.3316650390625,0.314453125,31.31103515625,3.2958984375,-27.34375
36368.226592958,-0.7579345703125,-0.3316650390625,0.1026611328125,31.31103515625,3.2958984375,-27.34375
36368.251126041,-0.622802734375,-0.3316650390625,0.1026611328125,31.31103515625,3.2958984375,-27.34375
36368.251287208,-0.622802734375,-0.2198486328125,0.1026611328125,31.31103515625,3.2958984375,-27.34375
36368.251348166,-0.622802734375,-0.2198486328125,0.091064453125,31.31103515625,3.2958984375,-27.34375
36368.251734791,-0.622802734375,-0.2198486328125,0.091064453125,50.048828125,3.2958984375,-27.34375
36368.265121833,-0.5594482421875,-0.2198486328125,0.091064453125,50.048828125,3.2958984375,-27.34375
36368.265263833,-0.5594482421875,-0.211669921875,0.091064453125,50.048828125,3.2958984375,-27.34375
36368.266706958,-0.5594482421875,-0.211669921875,0.1676025390625,50.048828125,3.2958984375,-27.34375
36368.295873083,-0.5594482421875,-0.211669921875,0.1676025390625,50.048828125,0.8544921875,-27.34375
36368.296022166,-0.5594482421875,-0.211669921875,0.1676025390625,50.048828125,0.8544921875,-34.72900390625
36368.297177833,-0.5169677734375,-0.211669921875,0.1676025390625,50.048828125,0.8544921875,-34.72900390625
36368.310399166,-0.5169677734375,-0.211669921875,0.2318115234375,50.048828125,0.8544921875,-34.72900390625
36368.310570958,-0.5169677734375,-0.211669921875,0.2318115234375,-17.7001953125,0.8544921875,-34.72900390625
36368.310660958,-0.5169677734375,-0.211669921875,0.2318115234375,-17.7001953125,-10.25390625,-34.72900390625
36368.340674458,-0.47998046875,-0.211669921875,0.2318115234375,-17.7001953125,-10.25390625,-34.72900390625
36368.340804958,-0.47998046875,-0.2161865234375,0.2318115234375,-17.7001953125,-10.25390625,-34.72900390625
36368.341673666,-0.47998046875,-0.2161865234375,0.1514892578125,-17.7001953125,-10.25390625,-34.72900390625
36368.355367041,-0.47998046875,-0.2161865234375,0.1514892578125,-17.7001953125,-21.6064453125,-34.72900390625
36368.355518333,-0.539306640625,-0.2161865234375,0.1514892578125,-17.7001953125,-21.6064453125,-34.72900390625
36368.356518666,-0.539306640625,-0.2933349609375,0.1514892578125,-17.7001953125,-21.6064453125,-34.72900390625
36368.358098958,-0.539306640625,-0.2933349609375,0.0478515625,-17.7001953125,-21.6064453125,-34.72900390625
36368.38544425,-0.539306640625,-0.2933349609375,0.0478515625,-17.7001953125,-27.099609375,-34.72900390625
36368.385584333,-0.539306640625,-0.2933349609375,0.0478515625,-17.7001953125,-27.099609375,-23.13232421875
36368.386539583,-0.604736328125,-0.2933349609375,0.0478515625,-17.7001953125,-27.099609375,-23.13232421875
36368.415476166,-0.604736328125,-0.2933349609375,0.0478515625,-37.53662109375,-27.099609375,-23.13232421875
36368.430301,-0.604736328125,-0.2933349609375,0.0478515625,-37.53662109375,-22.52197265625,-23.13232421875
36368.430419875,-0.604736328125,-0.2933349609375,0.0478515625,-37.53662109375,-22.52197265625,-12.51220703125
36368.446081416,-0.6282958984375,-0.2933349609375,0.0478515625,-37.53662109375,-22.52197265625,-12.51220703125
36368.490735666,-0.6282958984375,-0.2933349609375,0.0478515625,-37.53662109375,-19.10400390625,-12.51220703125
36368.490947,-0.612060546875,-0.2933349609375,0.0478515625,-37.53662109375,-19.10400390625,-12.51220703125
36368.491021041,-0.612060546875,-0.253662109375,0.0478515625,-37.53662109375,-19.10400390625,-12.51220703125
36368.52049475,-0.612060546875,-0.253662109375,0.0478515625,-37.53662109375,-19.47021484375,-12.51220703125
36368.527020833,-0.7105712890625,-0.253662109375,0.0478515625,-37.53662109375,-19.47021484375,-12.51220703125
36368.527083458,-0.7105712890625,-0.3720703125,0.0478515625,-37.53662109375,-19.47021484375,-12.51220703125
36368.52713725,-0.7105712890625,-0.3720703125,-0.016357421875,-37.53662109375,-19.47021484375,-12.51220703125
36368.535639291,-0.7105712890625,-0.3720703125,-0.016357421875,-37.53662109375,-19.47021484375,17.2119140625
36368.564734,-0.7396240234375,-0.3720703125,-0.016357421875,-37.53662109375,-19.47021484375,17.2119140625
36368.568067083,-0.7396240234375,-0.3046875,-0.016357421875,-37.53662109375,-19.47021484375,17.2119140625
36368.568145,-0.7396240234375,-0.3046875,0.0260009765625,-37.53662109375,-19.47021484375,17.2119140625
36368.56820975,-0.7396240234375,-0.3046875,0.0260009765625,-24.90234375,-19.47021484375,17.2119140625
36368.624558875,-0.79736328125,-0.3046875,0.0260009765625,-24.90234375,-19.47021484375,17.2119140625
36368.630129416,-0.79736328125,-0.2742919921875,0.0260009765625,-24.90234375,-19.47021484375,17.2119140625
36368.630198125,-0.79736328125,-0.2742919921875,0.0604248046875,-24.90234375,-19.47021484375,17.2119140625
36368.630271166,-0.79736328125,-0.2742919921875,0.0604248046875,-24.90234375,2.86865234375,17.2119140625
36368.660196916,-0.6163330078125,-0.2742919921875,0.0604248046875,-24.90234375,2.86865234375,17.2119140625
36368.660257541,-0.6163330078125,-0.3006591796875,0.0604248046875,-24.90234375,2.86865234375,17.2119140625
36368.660312041,-0.6163330078125,-0.3006591796875,0.1123046875,-24.90234375,2.86865234375,17.2119140625
36368.660363625,-0.6163330078125,-0.3006591796875,0.1123046875,-24.90234375,3.90625,17.2119140625
36368.660418041,-0.6163330078125,-0.3006591796875,0.1123046875,-24.90234375,3.90625,25.08544921875
36368.686437291,-0.843017578125,-0.3006591796875,0.1123046875,-24.90234375,3.90625,25.08544921875
36368.686633541,-0.843017578125,-0.243896484375,0.1123046875,-24.90234375,3.90625,25.08544921875
36368.686714041,-0.843017578125,-0.243896484375,0.060302734375,-24.90234375,3.90625,25.08544921875
36368.693000333,-0.843017578125,-0.243896484375,0.060302734375,-30.09033203125,3.90625,25.08544921875
36368.700101958,-0.634765625,-0.243896484375,0.060302734375,-30.09033203125,3.90625,25.08544921875
36368.700221833,-0.634765625,-0.162109375,0.060302734375,-30.09033203125,3.90625,25.08544921875
36368.701087291,-0.634765625,-0.162109375,0.11279296875,-30.09033203125,3.90625,25.08544921875
36368.730547458,-0.634765625,-0.162109375,0.11279296875,-30.09033203125,5.37109375,25.08544921875
36368.730737166,-0.634765625,-0.162109375,0.11279296875,-30.09033203125,5.37109375,14.404296875
36368.730821,-0.7574462890625,-0.162109375,0.11279296875,-30.09033203125,5.37109375,14.404296875
36368.7339705,-0.7574462890625,-0.288330078125,0.11279296875,-30.09033203125,5.37109375,14.404296875
36368.747957208,-0.7574462890625,-0.288330078125,0.11279296875,-30.09033203125,0.79345703125,14.404296875
36368.74802725,-0.7574462890625,-0.288330078125,0.11279296875,-30.09033203125,0.79345703125,15.0146484375
36368.804411541,-0.804443359375,-0.288330078125,0.11279296875,-30.09033203125,0.79345703125,15.0146484375
36368.806491791,-0.804443359375,-0.234130859375,0.11279296875,-30.09033203125,0.79345703125,15.0146484375
36368.865549208,-0.804443359375,-0.234130859375,0.09033203125,-30.09033203125,0.79345703125,15.0146484375
36368.865732791,-0.804443359375,-0.234130859375,0.09033203125,-41.68701171875,0.79345703125,15.0146484375
36368.895667958,-0.7025146484375,-0.234130859375,0.09033203125,-41.68701171875,0.79345703125,15.0146484375
36368.895855083,-0.7025146484375,-0.205078125,0.09033203125,-41.68701171875,0.79345703125,15.0146484375
36368.89677625,-0.7025146484375,-0.205078125,0.09033203125,-49.74365234375,0.79345703125,15.0146484375
36368.940494,-0.7025146484375,-0.205078125,0.09033203125,-49.74365234375,12.8173828125,15.0146484375
36368.969515,-0.9892578125,-0.205078125,0.09033203125,-49.74365234375,12.8173828125,15.0146484375
36368.971063083,-0.9892578125,-0.2188720703125,0.09033203125,-49.74365234375,12.8173828125,15.0146484375
36368.978123916,-0.9892578125,-0.2188720703125,0.247314453125,-49.74365234375,12.8173828125,15.0146484375
36368.986655,-0.9892578125,-0.2188720703125,0.247314453125,-49.74365234375,12.8173828125,-9.33837890625
36368.986933583,-1.0391845703125,-0.2188720703125,0.247314453125,-49.74365234375,12.8173828125,-9.33837890625
36368.9871215,-1.0391845703125,-0.1162109375,0.247314453125,-49.74365234375,12.8173828125,-9.33837890625
36368.987286208,-1.0391845703125,-0.1162109375,0.3826904296875,-49.74365234375,12.8173828125,-9.33837890625
36369.015702958,-1.0391845703125,-0.1162109375,0.3826904296875,-49.74365234375,12.8173828125,-19.775390625
36369.04584125,-1.1689453125,-0.1162109375,0.3826904296875,-49.74365234375,12.8173828125,-19.775390625
36369.06051825,-1.1689453125,-0.2252197265625,0.3826904296875,-49.74365234375,12.8173828125,-19.775390625
36369.060642625,-1.1689453125,-0.2252197265625,0.2423095703125,-49.74365234375,12.8173828125,-19.775390625
36369.063807708,-1.1689453125,-0.2252197265625,0.2423095703125,-49.74365234375,12.8173828125,-19.287109375
36369.079661583,-1.0582275390625,-0.2252197265625,0.2423095703125,-49.74365234375,12.8173828125,-19.287109375
36369.079723916,-1.0582275390625,-0.17333984375,0.2423095703125,-49.74365234375,12.8173828125,-19.287109375
36369.09060675,-1.0582275390625,-0.17333984375,0.341552734375,-49.74365234375,12.8173828125,-19.287109375
36369.106779708,-1.1087646484375,-0.17333984375,0.341552734375,-49.74365234375,12.8173828125,-19.287109375
36369.111688625,-1.1087646484375,-0.132080078125,0.341552734375,-49.74365234375,12.8173828125,-19.287109375
36369.111946666,-1.1087646484375,-0.132080078125,0.358642578125,-49.74365234375,12.8173828125,-19.287109375
36369.121447833,-1.1087646484375,-0.132080078125,0.358642578125,-49.74365234375,7.38525390625,-19.287109375
36369.121655791,-1.1087646484375,-0.132080078125,0.358642578125,-49.74365234375,7.38525390625,-29.9072265625
36369.166406333,-1.1146240234375,-0.132080078125,0.358642578125,-49.74365234375,7.38525390625,-29.9072265625
36369.166857666,-1.1146240234375,-0.0618896484375,0.358642578125,-49.74365234375,7.38525390625,-29.9072265625
36369.167369166,-1.1146240234375,-0.0618896484375,0.3023681640625,-49.74365234375,7.38525390625,-29.9072265625
36369.167538541,-1.1146240234375,-0.0618896484375,0.3023681640625,-49.74365234375,11.29150390625,-29.9072265625
36369.194610291,-1.088623046875,-0.0618896484375,0.3023681640625,-49.74365234375,11.29150390625,-29.9072265625
36369.195530208,-1.088623046875,-0.119140625,0.3023681640625,-49.74365234375,11.29150390625,-29.9072265625
36369.196893916,-1.088623046875,-0.119140625,0.3323974609375,-49.74365234375,11.29150390625,-29.9072265625
36369.197050458,-1.088623046875,-0.119140625,0.3323974609375,-2.44140625,11.29150390625,-29.9072265625
36369.22928475,-1.0682373046875,-0.119140625,0.3323974609375,-2.44140625,11.29150390625,-29.9072265625
36369.229504208,-1.0682373046875,-0.1063232421875,0.3323974609375,-2.44140625,11.29150390625,-29.9072265625
36369.229578083,-1.0682373046875,-0.1063232421875,0.306884765625,-2.44140625,11.29150390625,-29.9072265625
36369.240844333,-1.0682373046875,-0.1063232421875,0.306884765625,-2.44140625,17.15087890625,-29.9072265625
36369.241006041,-1.0682373046875,-0.1063232421875,0.306884765625,-2.44140625,17.15087890625,-19.8974609375
36369.271066791,-1.05029296875,-0.1063232421875,0.306884765625,-2.44140625,17.15087890625,-19.8974609375
36369.271227291,-1.05029296875,-0.0565185546875,0.306884765625,-2.44140625,17.15087890625,-19.8974609375
36369.271301041,-1.05029296875,-0.0565185546875,0.3380126953125,-2.44140625,17.15087890625,-19.8974609375
36369.271344125,-1.05029296875,-0.0565185546875,0.3380126953125,-3.173828125,17.15087890625,-19.8974609375
36369.301176541,-1.0406494140625,-0.0565185546875,0.3380126953125,-3.173828125,17.15087890625,-19.8974609375
36369.301319458,-1.0406494140625,-0.077880859375,0.3380126953125,-3.173828125,17.15087890625,-19.8974609375
36369.3013805,-1.0406494140625,-0.077880859375,0.346923828125,-3.173828125,17.15087890625,-19.8974609375
36369.345474375,-1.0406494140625,-0.077880859375,0.346923828125,-3.173828125,20.20263671875,-19.8974609375
36369.345613208,-1.0406494140625,-0.077880859375,0.346923828125,-3.173828125,20.20263671875,-15.44189453125
36369.346333291,-0.986572265625,-0.077880859375,0.346923828125,-3.173828125,20.20263671875,-15.44189453125
36369.39279025,-0.986572265625,-0.077880859375,0.3717041015625,-3.173828125,20.20263671875,-15.44189453125
36369.392841541,-0.986572265625,-0.077880859375,0.3717041015625,-8.544921875,20.20263671875,-15.44189453125
36369.39288375,-0.986572265625,-0.077880859375,0.3717041015625,-8.544921875,17.822265625,-15.44189453125
36369.392924083,-1.0538330078125,-0.077880859375,0.3717041015625,-8.544921875,17.822265625,-15.44189453125
36369.409011125,-1.0538330078125,-0.077880859375,0.3826904296875,-8.544921875,17.822265625,-15.44189453125
36369.409060208,-1.0538330078125,-0.077880859375,0.3826904296875,-17.7001953125,17.822265625,-15.44189453125
36369.409102541,-1.0538330078125,-0.077880859375,0.3826904296875,-17.7001953125,20.6298828125,-15.44189453125
36369.465053708,-1.0999755859375,-0.077880859375,0.3826904296875,-17.7001953125,20.6298828125,-15.44189453125
36369.465175791,-1.0999755859375,-0.04541015625,0.3826904296875,-17.7001953125,20.6298828125,-15.44189453125
36369.480698041,-1.0999755859375,-0.04541015625,0.4454345703125,-17.7001953125,20.6298828125,-15.44189453125
36369.480855291,-1.0999755859375,-0.04541015625,0.4454345703125,-17.02880859375,20.6298828125,-15.44189453125
36369.480909333,-1.1181640625,-0.04541015625,0.4454345703125,-17.02880859375,20.6298828125,-15.44189453125
36369.481200333,-1.1181640625,-0.0450439453125,0.4454345703125,-17.02880859375,20.6298828125,-15.44189453125
36369.495295041,-1.1181640625,-0.0450439453125,0.4454345703125,-7.26318359375,20.6298828125,-15.44189453125
36369.495420666,-1.1181640625,-0.0450439453125,0.4454345703125,-7.26318359375,13.12255859375,-15.44189453125
36369.496560666,-1.1181640625,-0.0450439453125,0.4454345703125,-7.26318359375,13.12255859375,-9.3994140625
NEW_REP,,,,,,
36369.526578916,-1.0447998046875,-0.0450439453125,0.4454345703125,-7.26318359375,13.12255859375,-9.3994140625
36369.526633708,-1.0447998046875,-0.05615234375,0.4454345703125,-7.26318359375,13.12255859375,-9.3994140625
36369.554476916,-1.0447998046875,-0.05615234375,0.4107666015625,-7.26318359375,13.12255859375,-9.3994140625
36369.559761625,-1.0447998046875,-0.05615234375,0.4107666015625,-7.26318359375,5.126953125,-9.3994140625
36369.559821333,-1.019775390625,-0.05615234375,0.4107666015625,-7.26318359375,5.126953125,-9.3994140625
36369.559874,-1.019775390625,-0.021240234375,0.4107666015625,-7.26318359375,5.126953125,-9.3994140625
36369.570580791,-1.019775390625,-0.021240234375,0.4107666015625,-7.26318359375,3.23486328125,-9.3994140625
36369.576352791,-1.019775390625,-0.021240234375,0.4107666015625,-7.26318359375,3.23486328125,-2.197265625
36369.600214375,-1.0345458984375,-0.021240234375,0.4107666015625,-7.26318359375,3.23486328125,-2.197265625
36369.600329583,-1.0345458984375,-0.0169677734375,0.4107666015625,-7.26318359375,3.23486328125,-2.197265625
36369.601513041,-1.0345458984375,-0.0169677734375,0.4005126953125,-7.26318359375,3.23486328125,-2.197265625
36369.630530625,-1.0345458984375,-0.0169677734375,0.4005126953125,-7.26318359375,3.5400390625,-2.197265625
36369.630723708,-1.0345458984375,-0.0169677734375,0.4005126953125,-7.26318359375,3.5400390625,0.1220703125
36369.630825083,-1.046142578125,-0.0169677734375,0.4005126953125,-7.26318359375,3.5400390625,0.1220703125
36369.645497583,-1.046142578125,-0.0169677734375,0.5045166015625,-7.26318359375,3.5400390625,0.1220703125
36369.645641041,-1.046142578125,-0.0169677734375,0.5045166015625,16.17431640625,3.5400390625,0.1220703125
36369.674758416,-1.046142578125,-0.0169677734375,0.5045166015625,16.17431640625,0.1220703125,0.1220703125
36369.676488416,-1.0750732421875,-0.0169677734375,0.5045166015625,16.17431640625,0.1220703125,0.1220703125
36369.676783125,-1.0750732421875,-0.02099609375,0.5045166015625,16.17431640625,0.1220703125,0.1220703125
36369.676878458,-1.0750732421875,-0.02099609375,0.5035400390625,16.17431640625,0.1220703125,0.1220703125
36369.720557625,-1.0750732421875,-0.02099609375,0.5035400390625,16.17431640625,-3.23486328125,0.1220703125
36369.720789625,-1.0750732421875,-0.02099609375,0.5035400390625,16.17431640625,-3.23486328125,15.380859375
36369.721578708,-1.14990234375,-0.02099609375,0.5035400390625,16.17431640625,-3.23486328125,15.380859375
36369.721793958,-1.14990234375,-0.0870361328125,0.5035400390625,16.17431640625,-3.23486328125,15.380859375
36369.7500755,-1.14990234375,-0.0870361328125,0.5035400390625,16.17431640625,-7.26318359375,15.380859375
36369.750281958,-1.14990234375,-0.0870361328125,0.5035400390625,16.17431640625,-7.26318359375,28.38134765625
36369.780422875,-1.1756591796875,-0.0870361328125,0.5035400390625,16.17431640625,-7.26318359375,28.38134765625
36369.780626416,-1.1756591796875,-0.169921875,0.5035400390625,16.17431640625,-7.26318359375,28.38134765625
36369.781074916,-1.1756591796875,-0.169921875,0.5272216796875,16.17431640625,-7.26318359375,28.38134765625
36369.79579275,-1.1898193359375,-0.169921875,0.5272216796875,16.17431640625,-7.26318359375,28.38134765625
36369.796112375,-1.1898193359375,-0.219970703125,0.5272216796875,16.17431640625,-7.26318359375,28.38134765625
36369.796222791,-1.1898193359375,-0.219970703125,0.5213623046875,16.17431640625,-7.26318359375,28.38134765625
36369.810290958,-1.1898193359375,-0.219970703125,0.5213623046875,16.17431640625,-7.26318359375,38.818359375
36369.840808166,-1.146484375,-0.219970703125,0.5213623046875,16.17431640625,-7.26318359375,38.818359375
36369.841200208,-1.146484375,-0.2269287109375,0.5213623046875,16.17431640625,-7.26318359375,38.818359375
36369.841507625,-1.146484375,-0.2269287109375,0.527587890625,16.17431640625,-7.26318359375,38.818359375
36369.841682458,-1.146484375,-0.2269287109375,0.527587890625,17.333984375,-7.26318359375,38.818359375
36369.861773,-1.1092529296875,-0.2269287109375,0.527587890625,17.333984375,-7.26318359375,38.818359375
36369.861871666,-1.1092529296875,-0.1983642578125,0.527587890625,17.333984375,-7.26318359375,38.818359375
36369.861956541,-1.1092529296875,-0.1983642578125,0.525390625,17.333984375,-7.26318359375,38.818359375
36369.870542958,-1.1092529296875,-0.1983642578125,0.525390625,17.333984375,-17.02880859375,38.818359375
36369.870729958,-1.1092529296875,-0.1983642578125,0.525390625,17.333984375,-17.02880859375,34.66796875
36369.9010925,-1.073486328125,-0.1983642578125,0.525390625,17.333984375,-17.02880859375,34.66796875
36369.901464375,-1.073486328125,-0.164794921875,0.525390625,17.333984375,-17.02880859375,34.66796875
36369.901772375,-1.073486328125,-0.164794921875,0.46435546875,17.333984375,-17.02880859375,34.66796875
36369.9297865,-1.073486328125,-0.164794921875,0.46435546875,17.333984375,-20.69091796875,34.66796875
36369.930719333,-1.073486328125,-0.164794921875,0.46435546875,17.333984375,-20.69091796875,28.25927734375
36369.960591416,-1.063232421875,-0.164794921875,0.46435546875,17.333984375,-20.69091796875,28.25927734375
36369.977591583,-1.063232421875,-0.1171875,0.46435546875,17.333984375,-20.69091796875,28.25927734375
36369.977669291,-1.063232421875,-0.1171875,0.3568115234375,17.333984375,-20.69091796875,28.25927734375
36369.977756791,-1.063232421875,-0.1171875,0.3568115234375,17.333984375,-20.69091796875,22.27783203125
36370.004456625,-1.06689453125,-0.1171875,0.3568115234375,17.333984375,-20.69091796875,22.27783203125
36370.010544833,-1.06689453125,-0.072265625,0.3568115234375,17.333984375,-20.69091796875,22.27783203125
36370.010629166,-1.06689453125,-0.072265625,0.37548828125,17.333984375,-20.69091796875,22.27783203125
36370.050625416,-1.0943603515625,-0.072265625,0.37548828125,17.333984375,-20.69091796875,22.27783203125
36370.050860666,-1.0943603515625,-0.0572509765625,0.37548828125,17.333984375,-20.69091796875,22.27783203125
36370.051179958,-1.0943603515625,-0.0572509765625,0.3204345703125,17.333984375,-20.69091796875,22.27783203125
36370.0513635,-1.0943603515625,-0.0572509765625,0.3204345703125,17.333984375,-20.69091796875,21.78955078125
36370.0800295,-0.9844970703125,-0.0572509765625,0.3204345703125,17.333984375,-20.69091796875,21.78955078125
36370.095533458,-0.9844970703125,-0.0068359375,0.3204345703125,17.333984375,-20.69091796875,21.78955078125
36370.095755791,-0.9844970703125,-0.0068359375,0.3077392578125,17.333984375,-20.69091796875,21.78955078125
36370.095852375,-0.9844970703125,-0.0068359375,0.3077392578125,17.333984375,-0.1220703125,21.78955078125
36370.096299958,-0.9844970703125,-0.0068359375,0.3077392578125,17.333984375,-0.1220703125,21.30126953125
36370.125505708,-0.8861083984375,-0.0068359375,0.3077392578125,17.333984375,-0.1220703125,21.30126953125
36370.125700541,-0.8861083984375,-0.044677734375,0.3077392578125,17.333984375,-0.1220703125,21.30126953125
36370.126366708,-0.8861083984375,-0.044677734375,0.3487548828125,17.333984375,-0.1220703125,21.30126953125
36370.1405465,-0.8861083984375,-0.044677734375,0.3487548828125,50.6591796875,-0.1220703125,21.30126953125
36370.14077975,-0.953125,-0.044677734375,0.3487548828125,50.6591796875,-0.1220703125,21.30126953125
36370.140904791,-0.953125,-0.156005859375,0.3487548828125,50.6591796875,-0.1220703125,21.30126953125
36370.141341333,-0.953125,-0.156005859375,0.272216796875,50.6591796875,-0.1220703125,21.30126953125
36370.160776583,-0.953125,-0.156005859375,0.272216796875,50.6591796875,-11.23046875,21.30126953125
36370.160860958,-0.953125,-0.156005859375,0.272216796875,50.6591796875,-11.23046875,10.07080078125
36370.170596208,-0.9261474609375,-0.156005859375,0.272216796875,50.6591796875,-11.23046875,10.07080078125
36370.170848833,-0.9261474609375,-0.1031494140625,0.272216796875,50.6591796875,-11.23046875,10.07080078125
36370.177369333,-0.9261474609375,-0.1031494140625,0.246826171875,50.6591796875,-11.23046875,10.07080078125
36370.200582166,-0.9261474609375,-0.1031494140625,0.246826171875,50.6591796875,-7.38525390625,10.07080078125
36370.200764583,-0.9261474609375,-0.1031494140625,0.246826171875,50.6591796875,-7.38525390625,5.18798828125
36370.202091416,-0.921630859375,-0.1031494140625,0.246826171875,50.6591796875,-7.38525390625,5.18798828125
36370.230580708,-0.921630859375,-0.1031494140625,0.2467041015625,50.6591796875,-7.38525390625,5.18798828125
36370.230821208,-0.921630859375,-0.1031494140625,0.2467041015625,77.57568359375,-7.38525390625,5.18798828125
36370.230948958,-0.921630859375,-0.1031494140625,0.2467041015625,77.57568359375,-3.47900390625,5.18798828125
36370.245432,-0.82275390625,-0.1031494140625,0.2467041015625,77.57568359375,-3.47900390625,5.18798828125
36370.245604916,-0.82275390625,-0.19970703125,0.2467041015625,77.57568359375,-3.47900390625,5.18798828125
36370.246665583,-0.82275390625,-0.19970703125,0.386474609375,77.57568359375,-3.47900390625,5.18798828125
36370.290399416,-0.82275390625,-0.19970703125,0.386474609375,77.57568359375,-3.60107421875,5.18798828125
36370.290595041,-0.82275390625,-0.19970703125,0.386474609375,77.57568359375,-3.60107421875,-5.615234375
36370.334665916,-0.8228759765625,-0.19970703125,0.386474609375,77.57568359375,-3.60107421875,-5.615234375
36370.33631075,-0.8228759765625,-0.2049560546875,0.386474609375,77.57568359375,-3.60107421875,-5.615234375
36370.33661525,-0.8228759765625,-0.2049560546875,0.386474609375,77.57568359375,-11.90185546875,-5.615234375
36370.33672625,-0.8228759765625,-0.2049560546875,0.386474609375,77.57568359375,-11.90185546875,-18.00537109375
36370.360854875,-0.8228759765625,-0.31005859375,0.386474609375,77.57568359375,-11.90185546875,-18.00537109375
36370.360943083,-0.8228759765625,-0.31005859375,0.17724609375,77.57568359375,-11.90185546875,-18.00537109375
36370.395269666,-0.8228759765625,-0.31005859375,0.17724609375,10.68115234375,-11.90185546875,-18.00537109375
36370.395474458,-0.8228759765625,-0.31005859375,0.17724609375,10.68115234375,-11.90185546875,-26.3671875
36370.396102375,-0.6829833984375,-0.31005859375,0.17724609375,10.68115234375,-11.90185546875,-26.3671875
36370.425385166,-0.6829833984375,-0.07568359375,0.17724609375,10.68115234375,-11.90185546875,-26.3671875
36370.425551125,-0.6829833984375,-0.07568359375,0.17724609375,36.07177734375,-11.90185546875,-26.3671875
36370.426185958,-0.6829833984375,-0.07568359375,0.17724609375,36.07177734375,-25.7568359375,-26.3671875
36370.426355291,-0.6829833984375,-0.07568359375,0.17724609375,36.07177734375,-25.7568359375,-36.4990234375
36370.454518,-0.6829833984375,-0.260986328125,0.17724609375,36.07177734375,-25.7568359375,-36.4990234375
36370.460855833,-0.6829833984375,-0.260986328125,-0.001220703125,36.07177734375,-25.7568359375,-36.4990234375
36370.46093575,-0.6829833984375,-0.260986328125,-0.001220703125,15.2587890625,-25.7568359375,-36.4990234375
36370.470184625,-0.6829833984375,-0.260986328125,-0.001220703125,15.2587890625,-25.7568359375,-45.83740234375
36370.500485,-0.677978515625,-0.260986328125,-0.001220703125,15.2587890625,-25.7568359375,-45.83740234375
36370.500683291,-0.677978515625,-0.074951171875,-0.001220703125,15.2587890625,-25.7568359375,-45.83740234375
36370.606125333,-0.677978515625,-0.074951171875,0.1556396484375,15.2587890625,-25.7568359375,-45.83740234375
36370.615242833,-0.677978515625,-0.074951171875,0.1556396484375,15.2587890625,-5.79833984375,-45.83740234375
36370.615375208,-0.677978515625,-0.074951171875,0.1556396484375,15.2587890625,-5.79833984375,-44.43359375
36370.615501541,-0.697998046875,-0.074951171875,0.1556396484375,15.2587890625,-5.79833984375,-44.43359375
36370.620765708,-0.697998046875,-0.074951171875,0.04541015625,15.2587890625,-5.79833984375,-44.43359375
36370.62108575,-0.697998046875,-0.074951171875,0.04541015625,7.32421875,-5.79833984375,-44.43359375
36370.650336458,-0.697998046875,-0.074951171875,0.04541015625,7.32421875,-4.0283203125,-44.43359375
36370.650533166,-0.828125,-0.074951171875,0.04541015625,7.32421875,-4.0283203125,-44.43359375
36370.651153125,-0.828125,-0.3004150390625,0.04541015625,7.32421875,-4.0283203125,-44.43359375
36370.651356458,-0.828125,-0.3004150390625,0.06640625,7.32421875,-4.0283203125,-44.43359375
36370.6795005,-0.828125,-0.3004150390625,0.06640625,7.32421875,1.15966796875,-44.43359375
36370.681111625,-0.828125,-0.3004150390625,0.06640625,7.32421875,1.15966796875,27.7099609375
36370.681284833,-0.8729248046875,-0.3004150390625,0.06640625,7.32421875,1.15966796875,27.7099609375
36370.695460083,-0.8729248046875,-0.396484375,0.06640625,7.32421875,1.15966796875,27.7099609375
36370.695661291,-0.8729248046875,-0.396484375,0.06640625,7.32421875,6.40869140625,27.7099609375
36370.695734041,-0.8729248046875,-0.396484375,0.06640625,7.32421875,6.40869140625,23.4375
36370.724471958,-0.870849609375,-0.396484375,0.06640625,7.32421875,6.40869140625,23.4375
36370.725906625,-0.870849609375,-0.3641357421875,0.06640625,7.32421875,6.40869140625,23.4375
36370.75458325,-0.870849609375,-0.3641357421875,0.113037109375,7.32421875,6.40869140625,23.4375
36370.756406583,-0.870849609375,-0.3641357421875,0.113037109375,-11.04736328125,6.40869140625,23.4375
36370.756708833,-0.8056640625,-0.3641357421875,0.113037109375,-11.04736328125,6.40869140625,23.4375
36370.756878666,-0.8056640625,-0.30224609375,0.113037109375,-11.04736328125,6.40869140625,23.4375
36370.802177458,-0.8056640625,-0.30224609375,0.113037109375,-11.04736328125,7.8125,23.4375
36370.830773708,-0.8056640625,-0.30224609375,0.113037109375,-11.04736328125,7.8125,12.3291015625
36370.830944458,-0.787109375,-0.30224609375,0.113037109375,-11.04736328125,7.8125,12.3291015625
36370.845832708,-0.787109375,-0.2259521484375,0.113037109375,-11.04736328125,7.8125,12.3291015625
36370.846026625,-0.787109375,-0.2259521484375,0.113037109375,-11.04736328125,5.92041015625,12.3291015625
36370.846132708,-0.7532958984375,-0.2259521484375,0.113037109375,-11.04736328125,5.92041015625,12.3291015625
36370.846671666,-0.7532958984375,-0.153076171875,0.113037109375,-11.04736328125,5.92041015625,12.3291015625
36370.889730166,-0.7532958984375,-0.153076171875,0.113037109375,-9.521484375,5.92041015625,12.3291015625
36370.890864083,-0.7532958984375,-0.153076171875,0.113037109375,-9.521484375,-3.41796875,12.3291015625
36370.910826041,-0.7532958984375,-0.153076171875,0.113037109375,-9.521484375,-3.41796875,24.47509765625
36370.949658125,-0.75244140625,-0.153076171875,0.113037109375,-9.521484375,-3.41796875,24.47509765625
36370.953748958,-0.75244140625,-0.153076171875,0.113037109375,0.91552734375,-3.41796875,24.47509765625
36370.953826666,-0.75244140625,-0.153076171875,0.113037109375,0.91552734375,2.38037109375,24.47509765625
36370.953895958,-0.7537841796875,-0.153076171875,0.113037109375,0.91552734375,2.38037109375,24.47509765625
36370.977510541,-0.7537841796875,-0.153076171875,0.0491943359375,0.91552734375,2.38037109375,24.47509765625
36370.97761725,-0.7537841796875,-0.153076171875,0.0491943359375,-31.92138671875,2.38037109375,24.47509765625
36370.97769025,-0.7537841796875,-0.153076171875,0.0491943359375,-31.92138671875,-4.5166015625,24.47509765625
36370.995438,-0.64990234375,-0.153076171875,0.0491943359375,-31.92138671875,-4.5166015625,24.47509765625
36370.995601958,-0.64990234375,-0.0579833984375,0.0491943359375,-31.92138671875,-4.5166015625,24.47509765625
36370.996328875,-0.64990234375,-0.0579833984375,0.237060546875,-31.92138671875,-4.5166015625,24.47509765625
36370.99647425,-0.64990234375,-0.0579833984375,0.237060546875,-63.04931640625,-4.5166015625,24.47509765625
36371.010585833,-0.71044921875,-0.0579833984375,0.237060546875,-63.04931640625,-4.5166015625,24.47509765625
36371.010811708,-0.71044921875,-0.1920166015625,0.237060546875,-63.04931640625,-4.5166015625,24.47509765625
36371.010904666,-0.71044921875,-0.1920166015625,0.18603515625,-63.04931640625,-4.5166015625,24.47509765625
36371.027303125,-0.71044921875,-0.1920166015625,0.18603515625,-63.04931640625,-5.0048828125,24.47509765625
36371.027377833,-0.71044921875,-0.1920166015625,0.18603515625,-63.04931640625,-5.0048828125,28.99169921875
36371.055642,-0.9483642578125,-0.1920166015625,0.18603515625,-63.04931640625,-5.0048828125,28.99169921875
36371.055814416,-0.9483642578125,-0.2076416015625,0.18603515625,-63.04931640625,-5.0048828125,28.99169921875
36371.056477458,-0.9483642578125,-0.2076416015625,0.120361328125,-63.04931640625,-5.0048828125,28.99169921875
36371.056616333,-0.9483642578125,-0.2076416015625,0.120361328125,-37.353515625,-5.0048828125,28.99169921875
36371.070647208,-0.7786865234375,-0.2076416015625,0.120361328125,-37.353515625,-5.0048828125,28.99169921875
36371.070874291,-0.7786865234375,-0.1541748046875,0.120361328125,-37.353515625,-5.0048828125,28.99169921875
36371.070970083,-0.7786865234375,-0.1541748046875,0.3143310546875,-37.353515625,-5.0048828125,28.99169921875
36371.146269,-0.7786865234375,-0.1541748046875,0.3143310546875,-37.353515625,13.5498046875,28.99169921875
36371.147323791,-0.7786865234375,-0.1541748046875,0.3143310546875,-37.353515625,13.5498046875,20.8740234375
36371.147856583,-0.80126953125,-0.1541748046875,0.3143310546875,-37.353515625,13.5498046875,20.8740234375
36371.1480425,-0.80126953125,-0.1541748046875,0.27685546875,-37.353515625,13.5498046875,20.8740234375
36371.177485041,-0.80126953125,-0.1541748046875,0.27685546875,-37.353515625,-0.06103515625,20.8740234375
36371.17758225,-0.80126953125,-0.1541748046875,0.27685546875,-37.353515625,-0.06103515625,15.380859375
36371.177663041,-0.91455078125,-0.1541748046875,0.27685546875,-37.353515625,-0.06103515625,15.380859375
36371.205385291,-0.91455078125,-0.24462890625,0.27685546875,-37.353515625,-0.06103515625,15.380859375
36371.210376333,-0.91455078125,-0.24462890625,0.27685546875,-37.353515625,1.5869140625,15.380859375
36371.210452875,-0.91455078125,-0.24462890625,0.27685546875,-37.353515625,1.5869140625,-1.5869140625
36371.220877458,-1.06640625,-0.24462890625,0.27685546875,-37.353515625,1.5869140625,-1.5869140625
36371.227131791,-1.06640625,-0.343505859375,0.27685546875,-37.353515625,1.5869140625,-1.5869140625
36371.227208958,-1.06640625,-0.343505859375,0.259765625,-37.353515625,1.5869140625,-1.5869140625
36371.235395416,-1.06640625,-0.343505859375,0.259765625,-37.353515625,1.5869140625,-16.66259765625
36371.280509291,-1.0360107421875,-0.343505859375,0.259765625,-37.353515625,1.5869140625,-16.66259765625
36371.280694291,-1.0360107421875,-0.1595458984375,0.259765625,-37.353515625,1.5869140625,-16.66259765625
36371.281292333,-1.0360107421875,-0.1595458984375,0.455810546875,-37.353515625,1.5869140625,-16.66259765625
36371.281497958,-1.0360107421875,-0.1595458984375,0.455810546875,-49.31640625,1.5869140625,-16.66259765625
36371.310620041,-1.0771484375,-0.1595458984375,0.455810546875,-49.31640625,1.5869140625,-16.66259765625
36371.312032791,-1.0771484375,-0.161376953125,0.455810546875,-49.31640625,1.5869140625,-16.66259765625
36371.312180125,-1.0771484375,-0.161376953125,0.4761962890625,-49.31640625,1.5869140625,-16.66259765625
36371.327578083,-1.0771484375,-0.161376953125,0.4761962890625,-49.31640625,3.96728515625,-16.66259765625
36371.354538875,-1.1407470703125,-0.161376953125,0.4761962890625,-49.31640625,3.96728515625,-16.66259765625
36371.360407125,-1.1407470703125,-0.25439453125,0.4761962890625,-49.31640625,3.96728515625,-16.66259765625
36371.360489791,-1.1407470703125,-0.25439453125,0.28271484375,-49.31640625,3.96728515625,-16.66259765625
36371.370546125,-1.1407470703125,-0.25439453125,0.28271484375,-49.31640625,3.90625,-16.66259765625
36371.377110916,-1.1407470703125,-0.25439453125,0.28271484375,-49.31640625,3.90625,-35.82763671875
36371.400874875,-0.99462890625,-0.25439453125,0.28271484375,-49.31640625,3.90625,-35.82763671875
36371.401023625,-0.99462890625,0.0107421875,0.28271484375,-49.31640625,3.90625,-35.82763671875
36371.402647791,-0.99462890625,0.0107421875,0.365478515625,-49.31640625,3.90625,-35.82763671875
36371.460923958,-0.99462890625,0.0107421875,0.365478515625,-49.31640625,6.9580078125,-35.82763671875
36371.461833916,-0.99462890625,0.0107421875,0.365478515625,-49.31640625,6.9580078125,-37.59765625
36371.462091416,-1.03466796875,0.0107421875,0.365478515625,-49.31640625,6.9580078125,-37.59765625
36371.507168375,-1.03466796875,0.0107421875,0.3646240234375,-49.31640625,6.9580078125,-37.59765625
36371.507580041,-1.03466796875,0.0107421875,0.3646240234375,-49.31640625,13.427734375,-37.59765625
36371.507692333,-1.03466796875,0.0107421875,0.3646240234375,-49.31640625,13.427734375,-33.75244140625
36371.507808333,-1.0596923828125,0.0107421875,0.3646240234375,-49.31640625,13.427734375,-33.75244140625
36371.534696375,-1.0596923828125,0.0107421875,0.3804931640625,-49.31640625,13.427734375,-33.75244140625
36371.53605775,-1.0596923828125,0.0107421875,0.3804931640625,-9.82666015625,13.427734375,-33.75244140625
36371.536231,-1.0596923828125,0.0107421875,0.3804931640625,-9.82666015625,15.19775390625,-33.75244140625
36371.564457166,-1.0560302734375,0.0107421875,0.3804931640625,-9.82666015625,15.19775390625,-33.75244140625
36371.565926958,-1.0560302734375,0.0064697265625,0.3804931640625,-9.82666015625,15.19775390625,-33.75244140625
36371.581179916,-1.0560302734375,0.0064697265625,0.3651123046875,-9.82666015625,15.19775390625,-33.75244140625
36371.585552458,-1.091064453125,0.0064697265625,0.3651123046875,-9.82666015625,15.19775390625,-33.75244140625
36371.585695833,-1.091064453125,0.0098876953125,0.3651123046875,-9.82666015625,15.19775390625,-33.75244140625
36371.585795333,-1.091064453125,0.0098876953125,0.389404296875,-9.82666015625,15.19775390625,-33.75244140625
36371.595360375,-1.091064453125,0.0098876953125,0.389404296875,-9.82666015625,15.19775390625,-28.01513671875
36371.624624416,-1.116943359375,0.0098876953125,0.389404296875,-9.82666015625,15.19775390625,-28.01513671875
36371.62639525,-1.116943359375,-0.0213623046875,0.389404296875,-9.82666015625,15.19775390625,-28.01513671875
36371.62664,-1.116943359375,-0.0213623046875,0.35693359375,-9.82666015625,15.19775390625,-28.01513671875
36371.626764708,-1.116943359375,-0.0213623046875,0.35693359375,-2.62451171875,15.19775390625,-28.01513671875
36371.644109333,-1.1148681640625,-0.0213623046875,0.35693359375,-2.62451171875,15.19775390625,-28.01513671875
36371.644190416,-1.1148681640625,-0.0130615234375,0.35693359375,-2.62451171875,15.19775390625,-28.01513671875
36371.660885708,-1.1148681640625,-0.0130615234375,0.421875,-2.62451171875,15.19775390625,-28.01513671875
36371.671400166,-1.1148681640625,-0.0130615234375,0.421875,-2.62451171875,12.0849609375,-28.01513671875
36371.677307625,-1.1148681640625,-0.0130615234375,0.421875,-2.62451171875,12.0849609375,-18.61572265625
36371.67742675,-1.11962890625,-0.0130615234375,0.421875,-2.62451171875,12.0849609375,-18.61572265625
36371.699523958,-1.11962890625,0.01708984375,0.421875,-2.62451171875,12.0849609375,-18.61572265625
36371.701856208,-1.11962890625,0.01708984375,0.421875,-2.62451171875,13.73291015625,-18.61572265625
36371.702035625,-1.11962890625,0.01708984375,0.421875,-2.62451171875,13.73291015625,-15.2587890625
36371.730345333,-1.0782470703125,0.01708984375,0.421875,-2.62451171875,13.73291015625,-15.2587890625
36371.735503125,-1.0782470703125,0.0521240234375,0.421875,-2.62451171875,13.73291015625,-15.2587890625
36371.735594666,-1.0782470703125,0.0521240234375,0.384033203125,-2.62451171875,13.73291015625,-15.2587890625
36371.760547208,-1.0782470703125,0.0521240234375,0.384033203125,-2.62451171875,13.73291015625,-9.33837890625
NEW_REP,,,,,,
36371.777017125,-1.0272216796875,0.0521240234375,0.384033203125,-2.62451171875,13.73291015625,-9.33837890625
36371.777304541,-1.0272216796875,0.0069580078125,0.384033203125,-2.62451171875,13.73291015625,-9.33837890625
36371.777391875,-1.0272216796875,0.0069580078125,0.41455078125,-2.62451171875,13.73291015625,-9.33837890625
36371.79383075,-1.0272216796875,0.0069580078125,0.41455078125,-2.62451171875,8.544921875,-9.33837890625
36371.79391075,-1.0272216796875,0.0069580078125,0.41455078125,-2.62451171875,8.544921875,-3.23486328125
36371.793980416,-0.9791259765625,0.0069580078125,0.41455078125,-2.62451171875,8.544921875,-3.23486328125
36371.810507625,-0.9791259765625,0.06005859375,0.41455078125,-2.62451171875,8.544921875,-3.23486328125
36371.82719025,-0.9791259765625,0.06005859375,0.41455078125,-2.62451171875,3.84521484375,-3.23486328125
36371.827266291,-0.9791259765625,0.06005859375,0.41455078125,-2.62451171875,3.84521484375,-2.25830078125
36371.827338791,-0.9595947265625,0.06005859375,0.41455078125,-2.62451171875,3.84521484375,-2.25830078125
36371.827406125,-0.9595947265625,0.0845947265625,0.41455078125,-2.62451171875,3.84521484375,-2.25830078125
36371.835581041,-0.9595947265625,0.0845947265625,0.41455078125,-2.62451171875,0.42724609375,-2.25830078125
36371.835742125,-0.9595947265625,0.0845947265625,0.41455078125,-2.62451171875,0.42724609375,-0.8544921875
36371.864656125,-0.9447021484375,0.0845947265625,0.41455078125,-2.62451171875,0.42724609375,-0.8544921875
36371.869141291,-0.9447021484375,0.0860595703125,0.41455078125,-2.62451171875,0.42724609375,-0.8544921875
36371.869232541,-0.9447021484375,0.0860595703125,0.3663330078125,-2.62451171875,0.42724609375,-0.8544921875
36371.869337375,-0.9447021484375,0.0860595703125,0.3663330078125,-3.173828125,0.42724609375,-0.8544921875
36371.894201166,-0.9390869140625,0.0860595703125,0.3663330078125,-3.173828125,0.42724609375,-0.8544921875
36371.894282166,-0.9390869140625,0.08544921875,0.3663330078125,-3.173828125,0.42724609375,-0.8544921875
36371.894352583,-0.9390869140625,0.08544921875,0.3831787109375,-3.173828125,0.42724609375,-0.8544921875
36371.8968545,-0.9390869140625,0.08544921875,0.3831787109375,-3.173828125,1.5869140625,-0.8544921875
36371.896998,-0.9390869140625,0.08544921875,0.3831787109375,-3.173828125,1.5869140625,2.38037109375
36371.91111625,-0.94384765625,0.08544921875,0.3831787109375,-3.173828125,1.5869140625,2.38037109375
36371.911189833,-0.94384765625,0.083984375,0.3831787109375,-3.173828125,1.5869140625,2.38037109375
36371.911256333,-0.94384765625,0.083984375,0.3909912109375,-3.173828125,1.5869140625,2.38037109375
36371.927247,-0.94384765625,0.083984375,0.3909912109375,-3.173828125,1.0986328125,2.38037109375
36371.927340541,-0.94384765625,0.083984375,0.3909912109375,-3.173828125,1.0986328125,4.21142578125
36371.943928583,-0.947998046875,0.083984375,0.3909912109375,-3.173828125,1.0986328125,4.21142578125
36371.94400675,-0.947998046875,0.0562744140625,0.3909912109375,-3.173828125,1.0986328125,4.21142578125
36371.944078,-0.947998046875,0.0562744140625,0.37939453125,-3.173828125,1.0986328125,4.21142578125
36372.044725291,-0.947998046875,0.0562744140625,0.37939453125,-3.173828125,1.953125,4.21142578125
36372.047094791,-0.947998046875,0.0562744140625,0.37939453125,-3.173828125,1.953125,5.43212890625
36372.047882541,-0.955322265625,0.0562744140625,0.37939453125,-3.173828125,1.953125,5.43212890625
36372.048238458,-0.955322265625,0.05224609375,0.37939453125,-3.173828125,1.953125,5.43212890625
36372.060765041,-0.955322265625,0.05224609375,0.37939453125,-3.173828125,2.9296875,5.43212890625
36372.060983291,-0.955322265625,0.05224609375,0.37939453125,-3.173828125,2.9296875,6.4697265625
36372.090535833,-1.0645751953125,0.05224609375,0.37939453125,-3.173828125,2.9296875,6.4697265625
36372.090756166,-1.0645751953125,0.0084228515625,0.37939453125,-3.173828125,2.9296875,6.4697265625
36372.091448166,-1.0645751953125,0.0084228515625,0.4727783203125,-3.173828125,2.9296875,6.4697265625
36372.091650458,-1.0645751953125,0.0084228515625,0.4727783203125,-3.173828125,-2.74658203125,6.4697265625
36372.120584875,-1.1107177734375,0.0084228515625,0.4727783203125,-3.173828125,-2.74658203125,6.4697265625
36372.1209085,-1.1107177734375,-0.022216796875,0.4727783203125,-3.173828125,-2.74658203125,6.4697265625
36372.121279125,-1.1107177734375,-0.022216796875,0.4901123046875,-3.173828125,-2.74658203125,6.4697265625
36372.12156575,-1.1107177734375,-0.022216796875,0.4901123046875,12.20703125,-2.74658203125,6.4697265625
36372.150599791,-1.1116943359375,-0.022216796875,0.4901123046875,12.20703125,-2.74658203125,6.4697265625
36372.151892833,-1.1116943359375,-0.025390625,0.4901123046875,12.20703125,-2.74658203125,6.4697265625
36372.15222675,-1.1116943359375,-0.025390625,0.4864501953125,12.20703125,-2.74658203125,6.4697265625
36372.152394666,-1.1116943359375,-0.025390625,0.4864501953125,7.01904296875,-2.74658203125,6.4697265625
36372.177866375,-1.120849609375,-0.025390625,0.4864501953125,7.01904296875,-2.74658203125,6.4697265625
36372.177958791,-1.120849609375,-0.0654296875,0.4864501953125,7.01904296875,-2.74658203125,6.4697265625
36372.178032375,-1.120849609375,-0.0654296875,0.486328125,7.01904296875,-2.74658203125,6.4697265625
36372.194782041,-1.120849609375,-0.0654296875,0.486328125,7.01904296875,-7.01904296875,6.4697265625
36372.19564325,-1.120849609375,-0.0654296875,0.486328125,7.01904296875,-7.01904296875,28.9306640625
36372.210951666,-1.12939453125,-0.0654296875,0.486328125,7.01904296875,-7.01904296875,28.9306640625
36372.211028083,-1.12939453125,-0.078857421875,0.486328125,7.01904296875,-7.01904296875,28.9306640625
36372.239589625,-1.12939453125,-0.078857421875,0.5020751953125,7.01904296875,-7.01904296875,28.9306640625
36372.255634208,-1.148681640625,-0.078857421875,0.5020751953125,7.01904296875,-7.01904296875,28.9306640625
36372.270744791,-1.148681640625,-0.114013671875,0.5020751953125,7.01904296875,-7.01904296875,28.9306640625
36372.27094775,-1.148681640625,-0.114013671875,0.52685546875,7.01904296875,-7.01904296875,28.9306640625
36372.271430375,-1.148681640625,-0.114013671875,0.52685546875,7.01904296875,-12.63427734375,28.9306640625
36372.34519425,-1.14990234375,-0.114013671875,0.52685546875,7.01904296875,-12.63427734375,28.9306640625
36372.346161958,-1.14990234375,-0.1361083984375,0.52685546875,7.01904296875,-12.63427734375,28.9306640625
36372.361290791,-1.14990234375,-0.1361083984375,0.4688720703125,7.01904296875,-12.63427734375,28.9306640625
36372.361651583,-1.14990234375,-0.1361083984375,0.4688720703125,7.01904296875,-12.63427734375,36.56005859375
36372.361832541,-1.14990234375,-0.0579833984375,0.4688720703125,7.01904296875,-12.63427734375,36.56005859375
36372.362054666,-1.14990234375,-0.0579833984375,0.4158935546875,7.01904296875,-12.63427734375,36.56005859375
36372.3754395,-1.14990234375,-0.0579833984375,0.4158935546875,7.01904296875,-14.34326171875,36.56005859375
36372.375636416,-1.14990234375,-0.0579833984375,0.4158935546875,7.01904296875,-14.34326171875,32.958984375
36372.394992,-1.034912109375,-0.0579833984375,0.4158935546875,7.01904296875,-14.34326171875,32.958984375
36372.395096958,-1.034912109375,-0.071044921875,0.4158935546875,7.01904296875,-14.34326171875,32.958984375
36372.395185458,-1.034912109375,-0.071044921875,0.372802734375,7.01904296875,-14.34326171875,32.958984375
36372.405536791,-1.034912109375,-0.071044921875,0.372802734375,7.01904296875,-10.1318359375,32.958984375
36372.420841208,-1.034912109375,-0.071044921875,0.372802734375,7.01904296875,-10.1318359375,29.9072265625
36372.421109458,-0.9840087890625,-0.071044921875,0.372802734375,7.01904296875,-10.1318359375,29.9072265625
36372.421241833,-0.9840087890625,-0.0882568359375,0.372802734375,7.01904296875,-10.1318359375,29.9072265625
36372.421485791,-0.9840087890625,-0.0882568359375,0.393310546875,7.01904296875,-10.1318359375,29.9072265625
36372.449554041,-0.9840087890625,-0.0882568359375,0.393310546875,7.01904296875,-7.99560546875,29.9072265625
36372.496099958,-0.9840087890625,-0.0882568359375,0.393310546875,7.01904296875,-7.99560546875,28.01513671875
36372.496472541,-0.950927734375,-0.0882568359375,0.393310546875,7.01904296875,-7.99560546875,28.01513671875
36372.496633416,-0.950927734375,-0.0660400390625,0.393310546875,7.01904296875,-7.99560546875,28.01513671875
36372.496744583,-0.950927734375,-0.0660400390625,0.393310546875,7.01904296875,-6.28662109375,28.01513671875
36372.527493083,-0.932373046875,-0.0660400390625,0.393310546875,7.01904296875,-6.28662109375,28.01513671875
36372.527573833,-0.932373046875,-0.0030517578125,0.393310546875,7.01904296875,-6.28662109375,28.01513671875
36372.527647833,-0.932373046875,-0.0030517578125,0.347900390625,7.01904296875,-6.28662109375,28.01513671875
36372.555038583,-0.932373046875,-0.0030517578125,0.347900390625,7.01904296875,-5.79833984375,28.01513671875
36372.560413166,-0.932373046875,-0.0030517578125,0.347900390625,7.01904296875,-5.79833984375,26.42822265625
36372.570801041,-0.9678955078125,-0.0030517578125,0.347900390625,7.01904296875,-5.79833984375,26.42822265625
36372.577453708,-0.9678955078125,-0.196533203125,0.347900390625,7.01904296875,-5.79833984375,26.42822265625
36372.577568083,-0.9678955078125,-0.196533203125,0.347900390625,7.01904296875,-1.40380859375,26.42822265625
36372.5776385,-0.9678955078125,-0.196533203125,0.347900390625,7.01904296875,-1.40380859375,25.08544921875
36372.614667791,-0.93603515625,-0.196533203125,0.347900390625,7.01904296875,-1.40380859375,25.08544921875
36372.627504708,-0.93603515625,-0.2454833984375,0.347900390625,7.01904296875,-1.40380859375,25.08544921875
36372.627585583,-0.93603515625,-0.2454833984375,0.231201171875,7.01904296875,-1.40380859375,25.08544921875
36372.627655708,-0.93603515625,-0.2454833984375,0.231201171875,7.01904296875,2.685546875,25.08544921875
36372.630401583,-0.8956298828125,-0.2454833984375,0.231201171875,7.01904296875,2.685546875,25.08544921875
36372.630579166,-0.8956298828125,-0.1890869140625,0.231201171875,7.01904296875,2.685546875,25.08544921875
36372.645443458,-0.8956298828125,-0.1890869140625,0.244873046875,7.01904296875,2.685546875,25.08544921875
36372.645602916,-0.8956298828125,-0.1890869140625,0.244873046875,7.01904296875,10.25390625,25.08544921875
36372.674388083,-0.8956298828125,-0.1890869140625,0.244873046875,7.01904296875,10.25390625,9.6435546875
36372.675748625,-0.870849609375,-0.1890869140625,0.244873046875,7.01904296875,10.25390625,9.6435546875
36372.67598775,-0.870849609375,-0.244140625,0.244873046875,7.01904296875,10.25390625,9.6435546875
36372.676120875,-0.870849609375,-0.244140625,0.325439453125,7.01904296875,10.25390625,9.6435546875
36372.721024833,-0.870849609375,-0.244140625,0.325439453125,7.01904296875,12.3291015625,9.6435546875
36372.721228958,-0.870849609375,-0.244140625,0.325439453125,7.01904296875,12.3291015625,5.06591796875
36372.736428541,-0.833251953125,-0.244140625,0.325439453125,7.01904296875,12.3291015625,5.06591796875
36372.736746166,-0.833251953125,-0.233642578125,0.325439453125,7.01904296875,12.3291015625,5.06591796875
36372.736883791,-0.833251953125,-0.233642578125,0.325439453125,7.01904296875,3.72314453125,5.06591796875
36372.736981833,-0.833251953125,-0.233642578125,0.325439453125,7.01904296875,3.72314453125,0.91552734375
36372.765871875,-0.837890625,-0.233642578125,0.325439453125,7.01904296875,3.72314453125,0.91552734375
36372.782250291,-0.837890625,-0.208251953125,0.325439453125,7.01904296875,3.72314453125,0.91552734375
36372.810448083,-0.837890625,-0.208251953125,0.265625,7.01904296875,3.72314453125,0.91552734375
36372.812105833,-0.837890625,-0.208251953125,0.265625,87.70751953125,3.72314453125,0.91552734375
36372.812436708,-0.85986328125,-0.208251953125,0.265625,87.70751953125,3.72314453125,0.91552734375
36372.812595458,-0.85986328125,-0.208251953125,0.2889404296875,87.70751953125,3.72314453125,0.91552734375
36372.825424875,-0.85986328125,-0.208251953125,0.2889404296875,87.70751953125,-3.90625,0.91552734375
36372.825608041,-0.85986328125,-0.208251953125,0.2889404296875,87.70751953125,-3.90625,-3.72314453125
36372.870175708,-0.8177490234375,-0.208251953125,0.2889404296875,87.70751953125,-3.90625,-3.72314453125
36372.899988166,-0.8177490234375,-0.3118896484375,0.2889404296875,87.70751953125,-3.90625,-3.72314453125
36372.900486166,-0.8177490234375,-0.3118896484375,0.2713623046875,87.70751953125,-3.90625,-3.72314453125
36372.901951083,-0.8177490234375,-0.3118896484375,0.2713623046875,11.23046875,-3.90625,-3.72314453125
36372.90219,-0.92138671875,-0.3118896484375,0.2713623046875,11.23046875,-3.90625,-3.72314453125
36372.930220333,-0.92138671875,-0.3118896484375,0.1937255859375,11.23046875,-3.90625,-3.72314453125
36372.930391458,-0.92138671875,-0.3118896484375,0.1937255859375,20.1416015625,-3.90625,-3.72314453125
36372.931007791,-0.92138671875,-0.3118896484375,0.1937255859375,20.1416015625,-18.85986328125,-3.72314453125
36373.0657275,-0.91015625,-0.3118896484375,0.1937255859375,20.1416015625,-18.85986328125,-3.72314453125
36373.066245916,-0.91015625,-0.4317626953125,0.1937255859375,20.1416015625,-18.85986328125,-3.72314453125
36373.080573833,-0.91015625,-0.4317626953125,0.1817626953125,20.1416015625,-18.85986328125,-3.72314453125
36373.125294041,-0.91015625,-0.4317626953125,0.1817626953125,20.1416015625,-22.8271484375,-3.72314453125
36373.144711875,-0.7864990234375,-0.4317626953125,0.1817626953125,20.1416015625,-22.8271484375,-3.72314453125
36373.144804833,-0.7864990234375,-0.1356201171875,0.1817626953125,20.1416015625,-22.8271484375,-3.72314453125
36373.144890833,-0.7864990234375,-0.1356201171875,0.1817626953125,-1.220703125,-22.8271484375,-3.72314453125
36373.161758958,-0.7864990234375,-0.1356201171875,0.1817626953125,-1.220703125,-22.8271484375,-52.978515625
36373.2006375,-0.8258056640625,-0.1356201171875,0.1817626953125,-1.220703125,-22.8271484375,-52.978515625
36373.200815,-0.8258056640625,-0.156005859375,0.1817626953125,-1.220703125,-22.8271484375,-52.978515625
36373.201973041,-0.8258056640625,-0.156005859375,-0.0211181640625,-1.220703125,-22.8271484375,-52.978515625
36373.245893541,-0.8258056640625,-0.156005859375,-0.0211181640625,-1.220703125,0.18310546875,-52.978515625
36373.246172833,-0.8258056640625,-0.156005859375,-0.0211181640625,-1.220703125,0.18310546875,-17.7001953125
36373.291253666,-0.8394775390625,-0.156005859375,-0.0211181640625,-1.220703125,0.18310546875,-17.7001953125
36373.291741083,-0.8394775390625,-0.156005859375,0.019287109375,-1.220703125,0.18310546875,-17.7001953125
36373.292011125,-0.8394775390625,-0.156005859375,0.019287109375,-20.44677734375,0.18310546875,-17.7001953125
36373.292141291,-0.8394775390625,-0.156005859375,0.019287109375,-20.44677734375,11.23046875,-17.7001953125
36373.3213785,-0.8642578125,-0.156005859375,0.019287109375,-20.44677734375,11.23046875,-17.7001953125
36373.328332041,-0.8642578125,-0.1334228515625,0.019287109375,-20.44677734375,11.23046875,-17.7001953125
36373.349721416,-0.8642578125,-0.1334228515625,0.050048828125,-20.44677734375,11.23046875,-17.7001953125
36373.351184083,-0.8642578125,-0.1334228515625,0.050048828125,2.86865234375,11.23046875,-17.7001953125
36373.3513975,-0.7943115234375,-0.1334228515625,0.050048828125,2.86865234375,11.23046875,-17.7001953125
36373.365729458,-0.7943115234375,-0.2838134765625,0.050048828125,2.86865234375,11.23046875,-17.7001953125
36373.380577333,-0.7943115234375,-0.2838134765625,0.050048828125,2.86865234375,12.8173828125,-17.7001953125
36373.380744333,-0.7943115234375,-0.2838134765625,0.050048828125,2.86865234375,12.8173828125,20.93505859375
36373.410484041,-0.7562255859375,-0.2838134765625,0.050048828125,2.86865234375,12.8173828125,20.93505859375
36373.410680375,-0.7562255859375,-0.257080078125,0.050048828125,2.86865234375,12.8173828125,20.93505859375
36373.411457,-0.7562255859375,-0.257080078125,0.041015625,2.86865234375,12.8173828125,20.93505859375
36373.425511166,-0.760498046875,-0.257080078125,0.041015625,2.86865234375,12.8173828125,20.93505859375
36373.425715833,-0.760498046875,-0.412109375,0.041015625,2.86865234375,12.8173828125,20.93505859375
36373.454694791,-0.760498046875,-0.412109375,-0.01953125,2.86865234375,12.8173828125,20.93505859375
36373.456932916,-0.760498046875,-0.412109375,-0.01953125,2.86865234375,12.8173828125,12.939453125
36373.477440416,-0.827392578125,-0.412109375,-0.01953125,2.86865234375,12.8173828125,12.939453125
36373.477516166,-0.827392578125,-0.18359375,-0.01953125,2.86865234375,12.8173828125,12.939453125
36373.5003325,-0.827392578125,-0.18359375,-0.01953125,-43.51806640625,12.8173828125,12.939453125
36373.502623125,-0.827392578125,-0.18359375,-0.01953125,-43.51806640625,13.916015625,12.939453125
36373.502778,-0.827392578125,-0.18359375,-0.01953125,-43.51806640625,13.916015625,4.638671875
36373.591394166,-0.827392578125,0.0069580078125,-0.01953125,-43.51806640625,13.916015625,4.638671875
36373.621291375,-0.827392578125,0.0069580078125,0.1905517578125,-43.51806640625,13.916015625,4.638671875
36373.621643708,-0.827392578125,0.0069580078125,0.1905517578125,-14.404296875,13.916015625,4.638671875
36373.621869125,-0.827392578125,0.0069580078125,0.1905517578125,-14.404296875,13.916015625,5.9814453125
36373.623282958,-0.822509765625,0.0069580078125,0.1905517578125,-14.404296875,13.916015625,5.9814453125
36373.680392041,-0.822509765625,0.0069580078125,0.1905517578125,-33.75244140625,13.916015625,5.9814453125
36373.681389958,-0.822509765625,0.0069580078125,0.1905517578125,-33.75244140625,16.90673828125,5.9814453125
36373.681788583,-0.822509765625,0.0069580078125,0.1905517578125,-33.75244140625,16.90673828125,25.2685546875
36373.681963166,-0.880615234375,0.0069580078125,0.1905517578125,-33.75244140625,16.90673828125,25.2685546875
36373.711539208,-0.880615234375,0.0069580078125,0.1905517578125,-9.82666015625,16.90673828125,25.2685546875
36373.71162075,-0.880615234375,0.0069580078125,0.1905517578125,-9.82666015625,10.31494140625,25.2685546875
36373.71169375,-0.880615234375,0.0069580078125,0.1905517578125,-9.82666015625,10.31494140625,29.47998046875
36373.711763333,-0.9254150390625,0.0069580078125,0.1905517578125,-9.82666015625,10.31494140625,29.47998046875
36373.711840708,-0.9254150390625,-0.1270751953125,0.1905517578125,-9.82666015625,10.31494140625,29.47998046875
36373.711909208,-0.9254150390625,-0.1270751953125,0.3341064453125,-9.82666015625,10.31494140625,29.47998046875
36373.727946958,-0.9254150390625,-0.1270751953125,0.3341064453125,-9.82666015625,2.44140625,29.47998046875
36373.728028125,-0.9254150390625,-0.1270751953125,0.3341064453125,-9.82666015625,2.44140625,26.91650390625
36373.755488916,-0.9976806640625,-0.1270751953125,0.3341064453125,-9.82666015625,2.44140625,26.91650390625
36373.755729166,-0.9976806640625,-0.0850830078125,0.3341064453125,-9.82666015625,2.44140625,26.91650390625
36373.756384166,-0.9976806640625,-0.0850830078125,0.383544921875,-9.82666015625,2.44140625,26.91650390625
36373.756567083,-0.9976806640625,-0.0850830078125,0.383544921875,-61.58447265625,2.44140625,26.91650390625
36373.777508666,-0.9228515625,-0.0850830078125,0.383544921875,-61.58447265625,2.44140625,26.91650390625
36373.815648458,-0.9228515625,-0.0565185546875,0.383544921875,-61.58447265625,2.44140625,26.91650390625
36373.81587,-0.9228515625,-0.0565185546875,0.4246826171875,-61.58447265625,2.44140625,26.91650390625
36373.82035325,-0.9228515625,-0.0565185546875,0.4246826171875,-61.58447265625,2.38037109375,26.91650390625
36373.830851125,-0.9228515625,-0.0565185546875,0.4246826171875,-61.58447265625,2.38037109375,20.20263671875
36373.835306125,-0.9228515625,-0.1220703125,0.4246826171875,-61.58447265625,2.38037109375,20.20263671875
36373.83544825,-0.9228515625,-0.1220703125,0.3387451171875,-61.58447265625,2.38037109375,20.20263671875
36373.835542041,-0.9228515625,-0.1220703125,0.3387451171875,1.03759765625,2.38037109375,20.20263671875
36373.845439208,-0.9228515625,-0.1220703125,0.3387451171875,1.03759765625,2.38037109375,18.06640625
36373.861073041,-0.95263671875,-0.1220703125,0.3387451171875,1.03759765625,2.38037109375,18.06640625
36373.861151708,-0.95263671875,-0.13623046875,0.3387451171875,1.03759765625,2.38037109375,18.06640625
36373.861220958,-0.95263671875,-0.13623046875,0.4259033203125,1.03759765625,2.38037109375,18.06640625
36373.906223666,-0.95263671875,-0.13623046875,0.4259033203125,1.03759765625,-0.48828125,18.06640625
36373.906431375,-0.95263671875,-0.13623046875,0.4259033203125,1.03759765625,-0.48828125,8.7890625
36373.907344458,-0.911865234375,-0.13623046875,0.4259033203125,1.03759765625,-0.48828125,8.7890625
36373.907516791,-0.911865234375,-0.12353515625,0.4259033203125,1.03759765625,-0.48828125,8.7890625
36373.996232375,-0.911865234375,-0.12353515625,0.4259033203125,1.03759765625,-7.87353515625,8.7890625
36373.996567958,-0.911865234375,-0.12353515625,0.4259033203125,1.03759765625,-7.87353515625,2.0751953125
36374.026065791,-1.0755615234375,-0.12353515625,0.4259033203125,1.03759765625,-7.87353515625,2.0751953125
36374.027393583,-1.0755615234375,-0.12353515625,0.2421875,1.03759765625,-7.87353515625,2.0751953125
36374.027802125,-1.0755615234375,-0.12353515625,0.2421875,1.03759765625,-4.150390625,2.0751953125
36374.028019041,-1.0755615234375,-0.12353515625,0.2421875,1.03759765625,-4.150390625,-5.55419921875
36374.042064916,-1.0755615234375,-0.0919189453125,0.2421875,1.03759765625,-4.150390625,-5.55419921875
36374.042190125,-1.0755615234375,-0.0919189453125,0.3397216796875,1.03759765625,-4.150390625,-5.55419921875
36374.042299916,-1.0755615234375,-0.0919189453125,0.3397216796875,8.1787109375,-4.150390625,-5.55419921875
36374.06150875,-1.0755615234375,-0.0919189453125,0.3397216796875,8.1787109375,-4.150390625,-18.61572265625
36374.070856541,-1.07421875,-0.0919189453125,0.3397216796875,8.1787109375,-4.150390625,-18.61572265625
36374.071176083,-1.07421875,-0.2177734375,0.3397216796875,8.1787109375,-4.150390625,-18.61572265625
36374.071332458,-1.07421875,-0.2177734375,0.2664794921875,8.1787109375,-4.150390625,-18.61572265625
36374.085755333,-1.07421875,-0.2177734375,0.2664794921875,8.1787109375,7.62939453125,-18.61572265625
36374.085932583,-1.07421875,-0.2177734375,0.2664794921875,8.1787109375,7.62939453125,-29.11376953125
36374.10071475,-1.0458984375,-0.2177734375,0.2664794921875,8.1787109375,7.62939453125,-29.11376953125
36374.100911625,-1.0458984375,-0.158447265625,0.2664794921875,8.1787109375,7.62939453125,-29.11376953125
36374.115902833,-1.0458984375,-0.158447265625,0.3707275390625,8.1787109375,7.62939453125,-29.11376953125
36374.116158791,-1.0458984375,-0.158447265625,0.3707275390625,8.1787109375,10.986328125,-29.11376953125
36374.116299416,-1.0458984375,-0.158447265625,0.3707275390625,8.1787109375,10.986328125,-36.07177734375
36374.145170375,-1.1282958984375,-0.158447265625,0.3707275390625,8.1787109375,10.986328125,-36.07177734375
36374.146647208,-1.1282958984375,-0.0841064453125,0.3707275390625,8.1787109375,10.986328125,-36.07177734375
36374.146935,-1.1282958984375,-0.0841064453125,0.3233642578125,8.1787109375,10.986328125,-36.07177734375
36374.147091791,-1.1282958984375,-0.0841064453125,0.3233642578125,8.1787109375,9.09423828125,-36.07177734375
36374.161540875,-1.1458740234375,-0.0841064453125,0.3233642578125,8.1787109375,9.09423828125,-36.07177734375
36374.161635708,-1.1458740234375,-0.082275390625,0.3233642578125,8.1787109375,9.09423828125,-36.07177734375
36374.161719916,-1.1458740234375,-0.082275390625,0.33251953125,8.1787109375,9.09423828125,-36.07177734375
36374.178442708,-1.1458740234375,-0.082275390625,0.33251953125,8.1787109375,11.71875,-36.07177734375
36374.178547125,-1.1458740234375,-0.082275390625,0.33251953125,8.1787109375,11.71875,-46.2646484375
36374.220766166,-1.09765625,-0.082275390625,0.33251953125,8.1787109375,11.71875,-46.2646484375
36374.221002666,-1.09765625,-0.031982421875,0.33251953125,8.1787109375,11.71875,-46.2646484375
36374.221527625,-1.09765625,-0.031982421875,0.3978271484375,8.1787109375,11.71875,-46.2646484375
36374.221777125,-1.09765625,-0.031982421875,0.3978271484375,8.1787109375,11.65771484375,-46.2646484375
36374.249687708,-1.1220703125,-0.031982421875,0.3978271484375,8.1787109375,11.65771484375,-46.2646484375
36374.251296041,-1.1220703125,-0.006591796875,0.3978271484375,8.1787109375,11.65771484375,-46.2646484375
36374.251546666,-1.1220703125,-0.006591796875,0.343505859375,8.1787109375,11.65771484375,-46.2646484375
36374.251686083,-1.1220703125,-0.006591796875,0.343505859375,-11.962890625,11.65771484375,-46.2646484375
36374.265701541,-1.1187744140625,-0.006591796875,0.343505859375,-11.962890625,11.65771484375,-46.2646484375
36374.265886791,-1.1187744140625,0.0823974609375,0.343505859375,-11.962890625,11.65771484375,-46.2646484375
36374.266710083,-1.1187744140625,0.0823974609375,0.3743896484375,-11.962890625,11.65771484375,-46.2646484375
36374.280652166,-1.1187744140625,0.0823974609375,0.3743896484375,-11.962890625,10.25390625,-46.2646484375
36374.280815666,-1.1187744140625,0.0823974609375,0.3743896484375,-11.962890625,10.25390625,-40.283203125
36374.310890333,-1.1070556640625,0.0823974609375,0.3743896484375,-11.962890625,10.25390625,-40.283203125
36374.311070583,-1.1070556640625,0.1126708984375,0.3743896484375,-11.962890625,10.25390625,-40.283203125
36374.311940625,-1.1070556640625,0.1126708984375,0.3966064453125,-11.962890625,10.25390625,-40.283203125
36374.31211125,-1.1070556640625,0.1126708984375,0.3966064453125,-20.99609375,10.25390625,-40.283203125
36374.327627541,-1.0985107421875,0.1126708984375,0.3966064453125,-20.99609375,10.25390625,-40.283203125
36374.327706125,-1.0985107421875,0.1251220703125,0.3966064453125,-20.99609375,10.25390625,-40.283203125
36374.327775958,-1.0985107421875,0.1251220703125,0.3809814453125,-20.99609375,10.25390625,-40.283203125
36374.371158125,-1.0985107421875,0.1251220703125,0.3809814453125,-20.99609375,9.765625,-40.283203125
36374.371352125,-1.0985107421875,0.1251220703125,0.3809814453125,-20.99609375,9.765625,-33.02001953125
36374.371869083,-1.122314453125,0.1251220703125,0.3809814453125,-20.99609375,9.765625,-33.02001953125
36374.372059458,-1.122314453125,0.118896484375,0.3809814453125,-20.99609375,9.765625,-33.02001953125
36374.400830666,-1.122314453125,0.118896484375,0.3809814453125,-20.99609375,10.986328125,-33.02001953125
36374.401007416,-1.122314453125,0.118896484375,0.3809814453125,-20.99609375,10.986328125,-24.7802734375
36374.401442583,-1.0626220703125,0.118896484375,0.3809814453125,-20.99609375,10.986328125,-24.7802734375
36374.401584333,-1.0626220703125,0.2071533203125,0.3809814453125,-20.99609375,10.986328125,-24.7802734375
36374.417302791,-1.0626220703125,0.2071533203125,0.3809814453125,-20.99609375,8.72802734375,-24.7802734375
36374.417470916,-1.0626220703125,0.2071533203125,0.3809814453125,-20.99609375,8.72802734375,-13.61083984375
36374.445516041,-1.0242919921875,0.2071533203125,0.3809814453125,-20.99609375,8.72802734375,-13.61083984375
36374.445704583,-1.0242919921875,0.1864013671875,0.3809814453125,-20.99609375,8.72802734375,-13.61083984375
36374.446318125,-1.0242919921875,0.1864013671875,0.4117431640625,-20.99609375,8.72802734375,-13.61083984375
36374.446455375,-1.0242919921875,0.1864013671875,0.4117431640625,-5.7373046875,8.72802734375,-13.61083984375
36374.460480541,-0.987060546875,0.1864013671875,0.4117431640625,-5.7373046875,8.72802734375,-13.61083984375
36374.460659625,-0.987060546875,0.1788330078125,0.4117431640625,-5.7373046875,8.72802734375,-13.61083984375
36374.460819083,-0.987060546875,0.1788330078125,0.4169921875,-5.7373046875,8.72802734375,-13.61083984375
36374.476811,-0.987060546875,0.1788330078125,0.4169921875,-5.7373046875,5.43212890625,-13.61083984375
36374.50569375,-0.987060546875,0.1788330078125,0.4169921875,-5.7373046875,5.43212890625,-3.173828125
36374.505848375,-0.9605712890625,0.1788330078125,0.4169921875,-5.7373046875,5.43212890625,-3.173828125
36374.5069605,-0.9605712890625,0.1953125,0.4169921875,-5.7373046875,5.43212890625,-3.173828125
36374.5071015,-0.9605712890625,0.1953125,0.4140625,-5.7373046875,5.43212890625,-3.173828125
NEW_REP,,,,,,
36374.535305041,-0.9605712890625,0.1953125,0.4140625,-5.7373046875,4.150390625,-3.173828125
36374.535474708,-0.9605712890625,0.1953125,0.4140625,-5.7373046875,4.150390625,-1.15966796875
36374.550592458,-0.9268798828125,0.1953125,0.4140625,-5.7373046875,4.150390625,-1.15966796875
36374.550748,-0.9268798828125,0.1866455078125,0.4140625,-5.7373046875,4.150390625,-1.15966796875
36374.565577333,-0.9268798828125,0.1866455078125,0.396484375,-5.7373046875,4.150390625,-1.15966796875
36374.565752833,-0.9268798828125,0.1866455078125,0.396484375,-5.7373046875,4.150390625,2.197265625
36374.595069041,-0.9365234375,0.1866455078125,0.396484375,-5.7373046875,4.150390625,2.197265625
36374.595270541,-0.9365234375,0.1929931640625,0.396484375,-5.7373046875,4.150390625,2.197265625
36374.59607325,-0.9365234375,0.1929931640625,0.4075927734375,-5.7373046875,4.150390625,2.197265625
36374.610519875,-0.9365234375,0.1929931640625,0.4075927734375,-5.7373046875,1.03759765625,2.197265625
36374.610668125,-0.9365234375,0.1929931640625,0.4075927734375,-5.7373046875,1.03759765625,3.662109375
36374.627600833,-0.9747314453125,0.1929931640625,0.4075927734375,-5.7373046875,1.03759765625,3.662109375
36374.627665083,-0.9747314453125,0.1934814453125,0.4075927734375,-5.7373046875,1.03759765625,3.662109375
36374.627722958,-0.9747314453125,0.1934814453125,0.3702392578125,-5.7373046875,1.03759765625,3.662109375
36374.644174208,-0.9747314453125,0.1934814453125,0.3702392578125,-5.7373046875,0.6103515625,3.662109375
36374.64425175,-0.9747314453125,0.1934814453125,0.3702392578125,-5.7373046875,0.6103515625,5.859375
36374.670463791,-0.99560546875,0.1934814453125,0.3702392578125,-5.7373046875,0.6103515625,5.859375
36374.670618625,-0.99560546875,0.1761474609375,0.3702392578125,-5.7373046875,0.6103515625,5.859375
36374.676867541,-0.99560546875,0.1761474609375,0.3797607421875,-5.7373046875,0.6103515625,5.859375
36374.676933625,-0.99560546875,0.1761474609375,0.3797607421875,-5.7373046875,2.62451171875,5.859375
36374.685495,-1.013916015625,0.1761474609375,0.3797607421875,-5.7373046875,2.62451171875,5.859375
36374.685624458,-1.013916015625,0.1226806640625,0.3797607421875,-5.7373046875,2.62451171875,5.859375
36374.686905583,-1.013916015625,0.1226806640625,0.415771484375,-5.7373046875,2.62451171875,5.859375
36374.71476075,-1.013916015625,0.1226806640625,0.415771484375,-5.7373046875,3.662109375,5.859375
36374.731028875,-1.013916015625,0.1226806640625,0.415771484375,-5.7373046875,3.662109375,12.14599609375
36374.731250791,-1.0487060546875,0.1226806640625,0.415771484375,-5.7373046875,3.662109375,12.14599609375
36374.731313333,-1.0487060546875,0.122314453125,0.415771484375,-5.7373046875,3.662109375,12.14599609375
36374.731406375,-1.0487060546875,0.122314453125,0.438232421875,-5.7373046875,3.662109375,12.14599609375
36374.775706625,-1.11474609375,0.122314453125,0.438232421875,-5.7373046875,3.662109375,12.14599609375
36374.775907541,-1.11474609375,0.0977783203125,0.438232421875,-5.7373046875,3.662109375,12.14599609375
36374.776233375,-1.11474609375,0.0977783203125,0.456298828125,-5.7373046875,3.662109375,12.14599609375
36374.806146125,-1.11474609375,0.0977783203125,0.456298828125,6.591796875,3.662109375,12.14599609375
36374.806374375,-1.1490478515625,0.0977783203125,0.456298828125,6.591796875,3.662109375,12.14599609375
36374.806504375,-1.1490478515625,0.072998046875,0.456298828125,6.591796875,3.662109375,12.14599609375
36374.807869666,-1.1490478515625,0.072998046875,0.4666748046875,6.591796875,3.662109375,12.14599609375
36374.835873916,-1.1490478515625,0.072998046875,0.4666748046875,6.591796875,-3.60107421875,12.14599609375
36374.836074291,-1.1490478515625,0.072998046875,0.4666748046875,6.591796875,-3.60107421875,27.34375
36374.86589025,-1.174560546875,0.072998046875,0.4666748046875,6.591796875,-3.60107421875,27.34375
36374.866091916,-1.174560546875,0.1002197265625,0.4666748046875,6.591796875,-3.60107421875,27.34375
36374.870478916,-1.174560546875,0.1002197265625,0.494140625,6.591796875,-3.60107421875,27.34375
36374.870589958,-1.174560546875,0.1002197265625,0.494140625,6.591796875,-3.60107421875,43.76220703125
36374.895578458,-1.1475830078125,0.1002197265625,0.494140625,6.591796875,-3.60107421875,43.76220703125
36374.895791833,-1.1475830078125,0.028564453125,0.494140625,6.591796875,-3.60107421875,43.76220703125
36374.900198541,-1.1475830078125,0.028564453125,0.5091552734375,6.591796875,-3.60107421875,43.76220703125
36374.900304708,-1.1475830078125,0.028564453125,0.5091552734375,6.591796875,-7.4462890625,43.76220703125
36374.927630583,-1.1181640625,0.028564453125,0.5091552734375,6.591796875,-7.4462890625,43.76220703125
36374.927710291,-1.1181640625,0.0087890625,0.5091552734375,6.591796875,-7.4462890625,43.76220703125
36374.927780083,-1.1181640625,0.0087890625,0.5108642578125,6.591796875,-7.4462890625,43.76220703125
36374.927848125,-1.1181640625,0.0087890625,0.5108642578125,26.06201171875,-7.4462890625,43.76220703125
36374.944565916,-1.100830078125,0.0087890625,0.5108642578125,26.06201171875,-7.4462890625,43.76220703125
36374.944644125,-1.100830078125,0.000244140625,0.5108642578125,26.06201171875,-7.4462890625,43.76220703125
36374.944716708,-1.100830078125,0.000244140625,0.4979248046875,26.06201171875,-7.4462890625,43.76220703125
36374.960579291,-1.100830078125,0.000244140625,0.4979248046875,26.06201171875,-14.6484375,43.76220703125
36374.960658916,-1.100830078125,0.000244140625,0.4979248046875,26.06201171875,-14.6484375,48.76708984375
36374.970897708,-1.0784912109375,0.000244140625,0.4979248046875,26.06201171875,-14.6484375,48.76708984375
36374.977317416,-1.0784912109375,-0.0489501953125,0.4979248046875,26.06201171875,-14.6484375,48.76708984375
36374.977438458,-1.0784912109375,-0.0489501953125,0.4437255859375,26.06201171875,-14.6484375,48.76708984375
36374.987206125,-1.0784912109375,-0.0489501953125,0.4437255859375,26.06201171875,-15.44189453125,48.76708984375
36374.987387291,-1.0784912109375,-0.0489501953125,0.4437255859375,26.06201171875,-15.44189453125,48.33984375
36375.002272125,-1.0634765625,-0.0489501953125,0.4437255859375,26.06201171875,-15.44189453125,48.33984375
36375.002532041,-1.0634765625,-0.0567626953125,0.4437255859375,26.06201171875,-15.44189453125,48.33984375
36375.0026425,-1.0634765625,-0.0567626953125,0.4326171875,26.06201171875,-15.44189453125,48.33984375
36375.01653225,-1.0634765625,-0.0567626953125,0.4326171875,26.06201171875,-13.18359375,48.33984375
36375.045628041,-1.0634765625,-0.0567626953125,0.4326171875,26.06201171875,-13.18359375,47.7294921875
36375.06100775,-1.037109375,-0.0567626953125,0.4326171875,26.06201171875,-13.18359375,47.7294921875
36375.105838291,-1.037109375,0.0216064453125,0.4326171875,26.06201171875,-13.18359375,47.7294921875
36375.106030083,-1.037109375,0.0216064453125,0.434814453125,26.06201171875,-13.18359375,47.7294921875
36375.107252541,-1.037109375,0.0216064453125,0.434814453125,26.06201171875,-13.24462890625,47.7294921875
36375.107416291,-0.9630126953125,0.0216064453125,0.434814453125,26.06201171875,-13.24462890625,47.7294921875
36375.15008725,-0.9630126953125,0.0216064453125,0.302001953125,26.06201171875,-13.24462890625,47.7294921875
36375.225665333,-0.9630126953125,0.0216064453125,0.302001953125,33.14208984375,-13.24462890625,47.7294921875
36375.227046291,-0.9630126953125,0.0216064453125,0.302001953125,33.14208984375,-5.9814453125,47.7294921875
36375.227606666,-0.9390869140625,0.0216064453125,0.302001953125,33.14208984375,-5.9814453125,47.7294921875
36375.228023083,-0.9390869140625,0.0216064453125,0.355712890625,33.14208984375,-5.9814453125,47.7294921875
36375.245063958,-0.9390869140625,0.0216064453125,0.355712890625,33.14208984375,0.06103515625,47.7294921875
36375.245160208,-0.9390869140625,0.0216064453125,0.355712890625,33.14208984375,0.06103515625,34.1796875
36375.255914916,-0.870849609375,0.0216064453125,0.355712890625,33.14208984375,0.06103515625,34.1796875
36375.262144083,-0.870849609375,-0.18115234375,0.355712890625,33.14208984375,0.06103515625,34.1796875
36375.262321958,-0.870849609375,-0.18115234375,0.4296875,33.14208984375,0.06103515625,34.1796875
36375.27100075,-0.870849609375,-0.18115234375,0.4296875,33.14208984375,5.43212890625,34.1796875
36375.271179791,-0.870849609375,-0.18115234375,0.4296875,33.14208984375,5.43212890625,11.23046875
36375.285783291,-0.8843994140625,-0.18115234375,0.4296875,33.14208984375,5.43212890625,11.23046875
36375.286066375,-0.8843994140625,-0.2637939453125,0.4296875,33.14208984375,5.43212890625,11.23046875
36375.286180541,-0.8843994140625,-0.2637939453125,0.283203125,33.14208984375,5.43212890625,11.23046875
36375.345584541,-0.8843994140625,-0.2637939453125,0.283203125,33.14208984375,-0.244140625,11.23046875
36375.346686458,-0.8843994140625,-0.2637939453125,0.283203125,33.14208984375,-0.244140625,2.5634765625
36375.347115541,-0.8231201171875,-0.2637939453125,0.283203125,33.14208984375,-0.244140625,2.5634765625
36375.347324541,-0.8231201171875,-0.2425537109375,0.283203125,33.14208984375,-0.244140625,2.5634765625
36375.360786583,-0.8231201171875,-0.2425537109375,0.283203125,33.14208984375,-0.30517578125,2.5634765625
36375.466236541,-0.8231201171875,-0.2425537109375,0.283203125,33.14208984375,-0.30517578125,-2.38037109375
36375.466704541,-0.9058837890625,-0.2425537109375,0.283203125,33.14208984375,-0.30517578125,-2.38037109375
36375.494968958,-0.9058837890625,-0.200927734375,0.283203125,33.14208984375,-0.30517578125,-2.38037109375
36375.495063,-0.9058837890625,-0.200927734375,0.302490234375,33.14208984375,-0.30517578125,-2.38037109375
36375.5117225,-0.9058837890625,-0.200927734375,0.302490234375,33.14208984375,-4.638671875,-2.38037109375
36375.512042666,-0.9058837890625,-0.200927734375,0.302490234375,33.14208984375,-4.638671875,-9.27734375
36375.512374208,-0.79736328125,-0.200927734375,0.302490234375,33.14208984375,-4.638671875,-9.27734375
36375.512446833,-0.79736328125,-0.216064453125,0.302490234375,33.14208984375,-4.638671875,-9.27734375
36375.527688541,-0.79736328125,-0.216064453125,0.302490234375,33.14208984375,-3.662109375,-9.27734375
36375.544737541,-0.79736328125,-0.216064453125,0.302490234375,33.14208984375,-3.662109375,-17.578125
36375.544834041,-0.8343505859375,-0.216064453125,0.302490234375,33.14208984375,-3.662109375,-17.578125
36375.585694208,-0.8343505859375,-0.14990234375,0.302490234375,33.14208984375,-3.662109375,-17.578125
36375.585934166,-0.8343505859375,-0.14990234375,0.2825927734375,33.14208984375,-3.662109375,-17.578125
36375.586538125,-0.8343505859375,-0.14990234375,0.2825927734375,33.14208984375,-17.08984375,-17.578125
36375.586763375,-0.8343505859375,-0.14990234375,0.2825927734375,33.14208984375,-17.08984375,-24.96337890625
36375.611078958,-0.8343505859375,-0.2347412109375,0.2825927734375,33.14208984375,-17.08984375,-24.96337890625
36375.611157125,-0.8343505859375,-0.2347412109375,0.1353759765625,33.14208984375,-17.08984375,-24.96337890625
36375.611248375,-0.8343505859375,-0.2347412109375,0.1353759765625,44.677734375,-17.08984375,-24.96337890625
36375.675575708,-0.8343505859375,-0.2347412109375,0.1353759765625,44.677734375,-17.08984375,-31.6162109375
36375.706010708,-0.774169921875,-0.2347412109375,0.1353759765625,44.677734375,-17.08984375,-31.6162109375
36375.706254875,-0.774169921875,-0.095703125,0.1353759765625,44.677734375,-17.08984375,-31.6162109375
36375.707798666,-0.774169921875,-0.095703125,0.1353759765625,12.3291015625,-17.08984375,-31.6162109375
36375.707998291,-0.774169921875,-0.095703125,0.1353759765625,12.3291015625,-17.08984375,-27.89306640625
36375.735626375,-0.774169921875,-0.2716064453125,0.1353759765625,12.3291015625,-17.08984375,-27.89306640625
36375.735824333,-0.774169921875,-0.2716064453125,-0.1048583984375,12.3291015625,-17.08984375,-27.89306640625
36375.750587791,-0.774169921875,-0.2716064453125,-0.1048583984375,51.57470703125,-17.08984375,-27.89306640625
36375.750795791,-0.774169921875,-0.2716064453125,-0.1048583984375,51.57470703125,-17.08984375,-22.03369140625
36375.77982575,-0.7762451171875,-0.2716064453125,-0.1048583984375,51.57470703125,-17.08984375,-22.03369140625
36375.781325125,-0.7762451171875,-0.183837890625,-0.1048583984375,51.57470703125,-17.08984375,-22.03369140625
36375.781755041,-0.7762451171875,-0.183837890625,0.1087646484375,51.57470703125,-17.08984375,-22.03369140625
36375.781915666,-0.7762451171875,-0.183837890625,0.1087646484375,17.7001953125,-17.08984375,-22.03369140625
36375.825316166,-0.8616943359375,-0.183837890625,0.1087646484375,17.7001953125,-17.08984375,-22.03369140625
36375.826569083,-0.8616943359375,-0.210205078125,0.1087646484375,17.7001953125,-17.08984375,-22.03369140625
36375.826897583,-0.8616943359375,-0.210205078125,0.065673828125,17.7001953125,-17.08984375,-22.03369140625
36375.841408125,-0.8616943359375,-0.210205078125,0.065673828125,17.7001953125,0.1220703125,-22.03369140625
36375.841554833,-0.75634765625,-0.210205078125,0.065673828125,17.7001953125,0.1220703125,-22.03369140625
36375.841879708,-0.75634765625,-0.2830810546875,0.065673828125,17.7001953125,0.1220703125,-22.03369140625
36375.842056875,-0.75634765625,-0.2830810546875,0.0985107421875,17.7001953125,0.1220703125,-22.03369140625
36375.861256958,-0.75634765625,-0.2830810546875,0.0985107421875,17.7001953125,0.91552734375,-22.03369140625
