Timestamp,Accel_X,Accel_Y,Accel_Z,Gyro_X,Gyro_Y,Gyro_Z
37193.274671041,-0.5767822265625,0.0,0.0,0.0,0.0,0.0
37193.302815833,-0.57177734375,0.0,0.0,0.0,0.0,0.0
37193.318834958,-0.5755615234375,0.0,0.0,0.0,0.0,0.0
37193.318878166,-0.5755615234375,-0.0462646484375,0.0,0.0,0.0,0.0
37193.348904416,-0.5850830078125,-0.0462646484375,0.0,0.0,0.0,0.0
37193.34899275,-0.5850830078125,-0.0548095703125,0.0,0.0,0.0,0.0
37193.363836708,-0.586669921875,-0.0548095703125,0.0,0.0,0.0,0.0
37193.365430166,-0.586669921875,-0.058349609375,0.0,0.0,0.0,0.0
37193.39393775,-0.593505859375,-0.058349609375,0.0,0.0,0.0,0.0
37193.394054375,-0.593505859375,-0.063232421875,0.0,0.0,0.0,0.0
37193.394859833,-0.593505859375,-0.063232421875,0.7967529296875,0.0,0.0,0.0
37193.409262916,-0.58740234375,-0.063232421875,0.7967529296875,0.0,0.0,0.0
37193.4093875,-0.58740234375,-0.048583984375,0.7967529296875,0.0,0.0,0.0
37193.40945575,-0.58740234375,-0.048583984375,0.8013916015625,0.0,0.0,0.0
37193.438256916,-0.5830078125,-0.048583984375,0.8013916015625,0.0,0.0,0.0
37193.439654416,-0.5830078125,-0.0640869140625,0.8013916015625,0.0,0.0,0.0
37193.439732625,-0.5830078125,-0.0640869140625,0.8040771484375,0.0,0.0,0.0
37193.498982416,-0.5830078125,-0.0640869140625,0.8040771484375,3.173828125,0.0,0.0
37193.499126208,-0.5830078125,-0.0640869140625,0.8040771484375,3.173828125,-1.28173828125,0.0
37193.499204958,-0.5604248046875,-0.0640869140625,0.8040771484375,3.173828125,-1.28173828125,0.0
37193.514181291,-0.5604248046875,-0.0640869140625,0.8126220703125,3.173828125,-1.28173828125,0.0
37193.514266791,-0.5604248046875,-0.0640869140625,0.8126220703125,3.173828125,-1.28173828125,0.0
37193.532365625,-0.5604248046875,-0.0640869140625,0.8126220703125,3.173828125,-1.28173828125,2.86865234375
37193.559025416,-0.56689453125,-0.0640869140625,0.8126220703125,3.173828125,-1.28173828125,2.86865234375
37193.559136666,-0.56689453125,-0.073974609375,0.8126220703125,3.173828125,-1.28173828125,2.86865234375
37193.565530916,-0.56689453125,-0.073974609375,0.8468017578125,3.173828125,-1.28173828125,2.86865234375
37193.565576208,-0.56689453125,-0.073974609375,0.8468017578125,4.82177734375,-1.28173828125,2.86865234375
37193.5736885,-0.5733642578125,-0.073974609375,0.8468017578125,4.82177734375,-1.28173828125,2.86865234375
37193.5738095,-0.5733642578125,-0.106201171875,0.8468017578125,4.82177734375,-1.28173828125,2.86865234375
37193.573884708,-0.5733642578125,-0.106201171875,0.862060546875,4.82177734375,-1.28173828125,2.86865234375
37193.588859166,-0.5733642578125,-0.106201171875,0.862060546875,4.82177734375,-18.98193359375,2.86865234375
37193.588973083,-0.5733642578125,-0.106201171875,0.862060546875,4.82177734375,-18.98193359375,-1.0986328125
37193.603925208,-0.556640625,-0.106201171875,0.862060546875,4.82177734375,-18.98193359375,-1.0986328125
37193.6040595,-0.556640625,-0.0888671875,0.862060546875,4.82177734375,-18.98193359375,-1.0986328125
37193.605212041,-0.556640625,-0.0888671875,0.9031982421875,4.82177734375,-18.98193359375,-1.0986328125
37193.618845916,-0.556640625,-0.0888671875,0.9031982421875,4.82177734375,-27.77099609375,-1.0986328125
37193.618940583,-0.556640625,-0.0888671875,0.9031982421875,4.82177734375,-27.77099609375,-2.13623046875
37193.634168958,-0.564208984375,-0.0888671875,0.9031982421875,4.82177734375,-27.77099609375,-2.13623046875
37193.634285208,-0.564208984375,-0.104248046875,0.9031982421875,4.82177734375,-27.77099609375,-2.13623046875
37193.634362041,-0.564208984375,-0.104248046875,0.9107666015625,4.82177734375,-27.77099609375,-2.13623046875
37193.649030208,-0.564208984375,-0.104248046875,0.9107666015625,4.82177734375,-39.97802734375,-2.13623046875
37193.649078083,-0.564208984375,-0.104248046875,0.9107666015625,4.82177734375,-39.97802734375,-8.60595703125
37193.665775458,-0.5963134765625,-0.104248046875,0.9107666015625,4.82177734375,-39.97802734375,-8.60595703125
37193.665826166,-0.5963134765625,-0.0853271484375,0.9107666015625,4.82177734375,-39.97802734375,-8.60595703125
37193.665871916,-0.5963134765625,-0.0853271484375,0.8519287109375,4.82177734375,-39.97802734375,-8.60595703125
37193.68235075,-0.5963134765625,-0.0853271484375,0.8519287109375,4.82177734375,-49.4384765625,-8.60595703125
37193.682403416,-0.5963134765625,-0.0853271484375,0.8519287109375,4.82177734375,-49.4384765625,-13.24462890625
37193.699071333,-0.6356201171875,-0.0853271484375,0.8519287109375,4.82177734375,-49.4384765625,-13.24462890625
37193.699124,-0.6356201171875,-0.0472412109375,0.8519287109375,4.82177734375,-49.4384765625,-13.24462890625
37193.699186083,-0.6356201171875,-0.0472412109375,0.776123046875,4.82177734375,-49.4384765625,-13.24462890625
37193.709133375,-0.6356201171875,-0.0472412109375,0.776123046875,4.82177734375,-58.4716796875,-13.24462890625
37193.71561875,-0.6356201171875,-0.0472412109375,0.776123046875,4.82177734375,-58.4716796875,-18.98193359375
37193.739602666,-0.6669921875,-0.0472412109375,0.776123046875,4.82177734375,-58.4716796875,-18.98193359375
37193.739762625,-0.6669921875,-0.0482177734375,0.776123046875,4.82177734375,-58.4716796875,-18.98193359375
37193.739840541,-0.6669921875,-0.0482177734375,0.7353515625,4.82177734375,-58.4716796875,-18.98193359375
37193.740935125,-0.6669921875,-0.0482177734375,0.7353515625,4.82177734375,-60.97412109375,-18.98193359375
37193.798082708,-0.678466796875,-0.0482177734375,0.7353515625,4.82177734375,-60.97412109375,-18.98193359375
37193.799506958,-0.678466796875,-0.0469970703125,0.7353515625,4.82177734375,-60.97412109375,-18.98193359375
37193.799631375,-0.678466796875,-0.0469970703125,0.6904296875,4.82177734375,-60.97412109375,-18.98193359375
37193.813825125,-0.678466796875,-0.0469970703125,0.6904296875,4.82177734375,-61.03515625,-18.98193359375
37193.813955875,-0.678466796875,-0.0469970703125,0.6904296875,4.82177734375,-61.03515625,-20.81298828125
37193.844262333,-0.7828369140625,-0.0469970703125,0.6904296875,4.82177734375,-61.03515625,-20.81298828125
37193.844411375,-0.7828369140625,-0.005859375,0.6904296875,4.82177734375,-61.03515625,-20.81298828125
37193.845236583,-0.7828369140625,-0.005859375,0.548095703125,4.82177734375,-61.03515625,-20.81298828125
37193.845363,-0.7828369140625,-0.005859375,0.548095703125,7.01904296875,-61.03515625,-20.81298828125
37193.866256958,-0.782958984375,-0.005859375,0.548095703125,7.01904296875,-61.03515625,-20.81298828125
37193.866323875,-0.782958984375,0.0107421875,0.548095703125,7.01904296875,-61.03515625,-20.81298828125
37193.86637675,-0.782958984375,0.0107421875,0.563232421875,7.01904296875,-61.03515625,-20.81298828125
37193.873980375,-0.782958984375,0.0107421875,0.563232421875,7.01904296875,-50.1708984375,-20.81298828125
37193.874085333,-0.782958984375,0.0107421875,0.563232421875,7.01904296875,-50.1708984375,-13.73291015625
37193.888929458,-0.79736328125,0.0107421875,0.563232421875,7.01904296875,-50.1708984375,-13.73291015625
37193.889133166,-0.79736328125,-0.0074462890625,0.563232421875,7.01904296875,-50.1708984375,-13.73291015625
37193.889187958,-0.79736328125,-0.0074462890625,0.5162353515625,7.01904296875,-50.1708984375,-13.73291015625
37193.917982791,-0.79736328125,-0.0074462890625,0.5162353515625,7.01904296875,-47.9736328125,-13.73291015625
37193.91895425,-0.79736328125,-0.0074462890625,0.5162353515625,7.01904296875,-47.9736328125,-10.31494140625
37193.919105625,-0.8560791015625,-0.0074462890625,0.5162353515625,7.01904296875,-47.9736328125,-10.31494140625
37193.933892375,-0.8560791015625,-0.0074462890625,0.41357421875,7.01904296875,-47.9736328125,-10.31494140625
37193.949093416,-0.8560791015625,-0.0074462890625,0.41357421875,17.27294921875,-47.9736328125,-10.31494140625
37193.9492975,-0.8560791015625,-0.0074462890625,0.41357421875,17.27294921875,-42.41943359375,-10.31494140625
37193.949409416,-0.871826171875,-0.0074462890625,0.41357421875,17.27294921875,-42.41943359375,-10.31494140625
37193.949928125,-0.871826171875,-0.023193359375,0.41357421875,17.27294921875,-42.41943359375,-10.31494140625
37193.966761666,-0.871826171875,-0.023193359375,0.41357421875,10.43701171875,-42.41943359375,-10.31494140625
37193.966831041,-0.871826171875,-0.023193359375,0.41357421875,10.43701171875,-38.75732421875,-10.31494140625
37193.966983875,-0.871826171875,-0.023193359375,0.41357421875,10.43701171875,-38.75732421875,-9.82666015625
37194.009017375,-0.87744140625,-0.023193359375,0.41357421875,10.43701171875,-38.75732421875,-9.82666015625
37194.009164291,-0.87744140625,-0.0255126953125,0.41357421875,10.43701171875,-38.75732421875,-9.82666015625
37194.009708625,-0.87744140625,-0.0255126953125,0.476806640625,10.43701171875,-38.75732421875,-9.82666015625
37194.009872083,-0.87744140625,-0.0255126953125,0.476806640625,1.46484375,-38.75732421875,-9.82666015625
37194.033592083,-0.9332275390625,-0.0255126953125,0.476806640625,1.46484375,-38.75732421875,-9.82666015625
37194.033659625,-0.9332275390625,-0.009033203125,0.476806640625,1.46484375,-38.75732421875,-9.82666015625
37194.033720833,-0.9332275390625,-0.009033203125,0.396240234375,1.46484375,-38.75732421875,-9.82666015625
37194.099133375,-0.9332275390625,-0.009033203125,0.396240234375,1.46484375,-27.83203125,-9.82666015625
37194.099296666,-0.9332275390625,-0.009033203125,0.396240234375,1.46484375,-27.83203125,-2.01416015625
37194.099358791,-0.945556640625,-0.009033203125,0.396240234375,1.46484375,-27.83203125,-2.01416015625
37194.099837333,-0.945556640625,0.041748046875,0.396240234375,1.46484375,-27.83203125,-2.01416015625
37194.115297458,-0.945556640625,0.041748046875,0.396240234375,1.46484375,-16.11328125,-2.01416015625
37194.115342083,-0.945556640625,0.041748046875,0.396240234375,1.46484375,-16.11328125,5.37109375
37194.142840208,-0.9088134765625,0.041748046875,0.396240234375,1.46484375,-16.11328125,5.37109375
37194.148645208,-0.9088134765625,-0.01611328125,0.396240234375,1.46484375,-16.11328125,5.37109375
37194.148686666,-0.9088134765625,-0.01611328125,0.38525390625,1.46484375,-16.11328125,5.37109375
37194.148722666,-0.9088134765625,-0.01611328125,0.38525390625,5.859375,-16.11328125,5.37109375
37194.172724291,-0.9022216796875,-0.01611328125,0.38525390625,5.859375,-16.11328125,5.37109375
37194.174518791,-0.9022216796875,-0.0152587890625,0.38525390625,5.859375,-16.11328125,5.37109375
37194.174654,-0.9022216796875,-0.0152587890625,0.3948974609375,5.859375,-16.11328125,5.37109375
37194.174710333,-0.9022216796875,-0.0152587890625,0.3948974609375,5.859375,-6.89697265625,5.37109375
37194.203160083,-0.89404296875,-0.0152587890625,0.3948974609375,5.859375,-6.89697265625,5.37109375
37194.20503325,-0.89404296875,-0.004638671875,0.3948974609375,5.859375,-6.89697265625,5.37109375
37194.205150041,-0.89404296875,-0.004638671875,0.3812255859375,5.859375,-6.89697265625,5.37109375
37194.205221083,-0.89404296875,-0.004638671875,0.3812255859375,3.11279296875,-6.89697265625,5.37109375
37194.218944958,-0.8968505859375,-0.004638671875,0.3812255859375,3.11279296875,-6.89697265625,5.37109375
37194.219052958,-0.8968505859375,-0.03173828125,0.3812255859375,3.11279296875,-6.89697265625,5.37109375
37194.219117458,-0.8968505859375,-0.03173828125,0.3990478515625,3.11279296875,-6.89697265625,5.37109375
37194.233625958,-0.8968505859375,-0.03173828125,0.3990478515625,3.11279296875,-3.23486328125,5.37109375
37194.233725875,-0.8968505859375,-0.03173828125,0.3990478515625,3.11279296875,-3.23486328125,9.33837890625
37194.248694708,-0.897705078125,-0.03173828125,0.3990478515625,3.11279296875,-3.23486328125,9.33837890625
37194.248732833,-0.897705078125,-0.059814453125,0.3990478515625,3.11279296875,-3.23486328125,9.33837890625
37194.265294583,-0.897705078125,-0.059814453125,0.419189453125,3.11279296875,-3.23486328125,9.33837890625
37194.265335833,-0.897705078125,-0.059814453125,0.419189453125,3.11279296875,-3.84521484375,9.33837890625
37194.265374208,-0.897705078125,-0.059814453125,0.419189453125,3.11279296875,-3.84521484375,8.11767578125
37194.292887375,-0.90283203125,-0.059814453125,0.419189453125,3.11279296875,-3.84521484375,8.11767578125
37194.298629958,-0.90283203125,-0.070068359375,0.419189453125,3.11279296875,-3.84521484375,8.11767578125
37194.298669416,-0.90283203125,-0.070068359375,0.421875,3.11279296875,-3.84521484375,8.11767578125
37194.298704333,-0.90283203125,-0.070068359375,0.421875,4.08935546875,-3.84521484375,8.11767578125
NEW_REP,,,,,,
37194.339386958,-0.9212646484375,-0.070068359375,0.421875,4.08935546875,-3.84521484375,8.11767578125
37194.340262416,-0.9212646484375,-0.08154296875,0.421875,4.08935546875,-3.84521484375,8.11767578125
37194.340385375,-0.9212646484375,-0.08154296875,0.4197998046875,4.08935546875,-3.84521484375,8.11767578125
37194.340452291,-0.9212646484375,-0.08154296875,0.4197998046875,5.9814453125,-3.84521484375,8.11767578125
37194.428713708,-0.9759521484375,-0.08154296875,0.4197998046875,5.9814453125,-3.84521484375,8.11767578125
37194.428886791,-0.9759521484375,-0.114501953125,0.4197998046875,5.9814453125,-3.84521484375,8.11767578125
37194.429467583,-0.9759521484375,-0.114501953125,0.4088134765625,5.9814453125,-3.84521484375,8.11767578125
37194.45799575,-0.9759521484375,-0.114501953125,0.4088134765625,5.9814453125,-3.84521484375,7.8125
37194.458913541,-1.2677001953125,-0.114501953125,0.4088134765625,5.9814453125,-3.84521484375,7.8125
37194.459028125,-1.2677001953125,-0.2479248046875,0.4088134765625,5.9814453125,-3.84521484375,7.8125
37194.466625166,-1.2677001953125,-0.2479248046875,0.5880126953125,5.9814453125,-3.84521484375,7.8125
37194.474124125,-1.2677001953125,-0.2479248046875,0.5880126953125,5.9814453125,-8.1787109375,7.8125
37194.4742345,-1.2677001953125,-0.2479248046875,0.5880126953125,5.9814453125,-8.1787109375,26.9775390625
37194.488979166,-1.296142578125,-0.2479248046875,0.5880126953125,5.9814453125,-8.1787109375,26.9775390625
37194.503983583,-1.296142578125,-0.328369140625,0.5880126953125,5.9814453125,-8.1787109375,26.9775390625
37194.518871875,-1.296142578125,-0.328369140625,0.610595703125,5.9814453125,-8.1787109375,26.9775390625
37194.519013833,-1.296142578125,-0.328369140625,0.610595703125,5.9814453125,-15.19775390625,26.9775390625
37194.519095625,-1.31640625,-0.328369140625,0.610595703125,5.9814453125,-15.19775390625,26.9775390625
37194.533890125,-1.31640625,-0.328369140625,0.59375,5.9814453125,-15.19775390625,26.9775390625
37194.534036458,-1.31640625,-0.328369140625,0.59375,21.1181640625,-15.19775390625,26.9775390625
37194.534120083,-1.31640625,-0.328369140625,0.59375,21.1181640625,-21.3623046875,26.9775390625
37194.562953041,-1.27783203125,-0.328369140625,0.59375,21.1181640625,-21.3623046875,26.9775390625
37194.564797791,-1.27783203125,-0.34423828125,0.59375,21.1181640625,-21.3623046875,26.9775390625
37194.5649635,-1.27783203125,-0.34423828125,0.5233154296875,21.1181640625,-21.3623046875,26.9775390625
37194.565054666,-1.27783203125,-0.34423828125,0.5233154296875,4.57763671875,-21.3623046875,26.9775390625
37194.583254,-1.2955322265625,-0.34423828125,0.5233154296875,4.57763671875,-21.3623046875,26.9775390625
37194.583317,-1.2955322265625,-0.340576171875,0.5233154296875,4.57763671875,-21.3623046875,26.9775390625
37194.583370333,-1.2955322265625,-0.340576171875,0.5032958984375,4.57763671875,-21.3623046875,26.9775390625
37194.5940405,-1.2955322265625,-0.340576171875,0.5032958984375,4.57763671875,-23.8037109375,26.9775390625
37194.600306,-1.2955322265625,-0.340576171875,0.5032958984375,4.57763671875,-23.8037109375,52.24609375
37194.609069375,-1.24853515625,-0.340576171875,0.5032958984375,4.57763671875,-23.8037109375,52.24609375
37194.60921875,-1.24853515625,-0.275146484375,0.5032958984375,4.57763671875,-23.8037109375,52.24609375
37194.609272958,-1.24853515625,-0.275146484375,0.489990234375,4.57763671875,-23.8037109375,52.24609375
37194.624074291,-1.24853515625,-0.275146484375,0.489990234375,4.57763671875,-19.4091796875,52.24609375
37194.624187916,-1.24853515625,-0.275146484375,0.489990234375,4.57763671875,-19.4091796875,54.38232421875
37194.63921225,-1.1964111328125,-0.275146484375,0.489990234375,4.57763671875,-19.4091796875,54.38232421875
37194.6393375,-1.1964111328125,-0.2332763671875,0.489990234375,4.57763671875,-19.4091796875,54.38232421875
37194.640335375,-1.1964111328125,-0.2332763671875,0.4024658203125,4.57763671875,-19.4091796875,54.38232421875
37194.699469375,-1.1964111328125,-0.2332763671875,0.4024658203125,4.57763671875,-15.625,54.38232421875
37194.699641833,-1.1964111328125,-0.2332763671875,0.4024658203125,4.57763671875,-15.625,45.5322265625
37194.744207,-1.1964111328125,-0.228759765625,0.4024658203125,4.57763671875,-15.625,45.5322265625
37194.744399,-1.1964111328125,-0.228759765625,0.3612060546875,4.57763671875,-15.625,45.5322265625
37194.744770125,-1.1964111328125,-0.228759765625,0.3612060546875,17.4560546875,-15.625,45.5322265625
37194.744945375,-1.1964111328125,-0.228759765625,0.3612060546875,17.4560546875,-15.625,37.109375
37194.758861166,-1.1964111328125,-0.1580810546875,0.3612060546875,17.4560546875,-15.625,37.109375
37194.759053208,-1.1964111328125,-0.1580810546875,0.2630615234375,17.4560546875,-15.625,37.109375
37194.759167208,-1.1964111328125,-0.1580810546875,0.2630615234375,21.42333984375,-15.625,37.109375
37194.774083541,-1.1964111328125,-0.1580810546875,0.2630615234375,21.42333984375,-15.625,15.93017578125
37194.78916975,-0.8458251953125,-0.1580810546875,0.2630615234375,21.42333984375,-15.625,15.93017578125
37194.789346125,-0.8458251953125,-0.094482421875,0.2630615234375,21.42333984375,-15.625,15.93017578125
37194.804026208,-0.8458251953125,-0.094482421875,0.3704833984375,21.42333984375,-15.625,15.93017578125
37194.804244958,-0.8458251953125,-0.094482421875,0.3704833984375,21.42333984375,2.44140625,15.93017578125
37194.804338291,-0.8458251953125,-0.094482421875,0.3704833984375,21.42333984375,2.44140625,-0.9765625
37194.849194958,-0.9632568359375,-0.094482421875,0.3704833984375,21.42333984375,2.44140625,-0.9765625
37194.850036708,-0.9632568359375,-0.24951171875,0.3704833984375,21.42333984375,2.44140625,-0.9765625
37194.850418333,-0.9632568359375,-0.24951171875,0.2518310546875,21.42333984375,2.44140625,-0.9765625
37194.850570625,-0.9632568359375,-0.24951171875,0.2518310546875,71.8994140625,2.44140625,-0.9765625
37194.864091958,-0.721435546875,-0.24951171875,0.2518310546875,71.8994140625,2.44140625,-0.9765625
37194.864372,-0.721435546875,-0.16796875,0.2518310546875,71.8994140625,2.44140625,-0.9765625
37194.864525,-0.721435546875,-0.16796875,0.310302734375,71.8994140625,2.44140625,-0.9765625
37194.894144708,-0.721435546875,-0.16796875,0.310302734375,71.8994140625,11.53564453125,-0.9765625
37194.900933625,-0.721435546875,-0.16796875,0.310302734375,71.8994140625,11.53564453125,-13.97705078125
37194.901070333,-0.6802978515625,-0.16796875,0.310302734375,71.8994140625,11.53564453125,-13.97705078125
37194.901141708,-0.6802978515625,-0.2506103515625,0.310302734375,71.8994140625,11.53564453125,-13.97705078125
37194.909227625,-0.6802978515625,-0.2506103515625,0.310302734375,71.8994140625,1.15966796875,-13.97705078125
37194.909363166,-0.6802978515625,-0.2506103515625,0.310302734375,71.8994140625,1.15966796875,-27.34375
37194.924256,-0.6700439453125,-0.2506103515625,0.310302734375,71.8994140625,1.15966796875,-27.34375
37194.92447725,-0.6700439453125,-0.3680419921875,0.310302734375,71.8994140625,1.15966796875,-27.34375
37194.924590041,-0.6700439453125,-0.3680419921875,0.2083740234375,71.8994140625,1.15966796875,-27.34375
37195.013981583,-0.6700439453125,-0.3680419921875,0.2083740234375,71.8994140625,-0.6103515625,-27.34375
37195.014190791,-0.6700439453125,-0.3680419921875,0.2083740234375,71.8994140625,-0.6103515625,-38.14697265625
37195.014891083,-0.7259521484375,-0.3680419921875,0.2083740234375,71.8994140625,-0.6103515625,-38.14697265625
37195.015105458,-0.7259521484375,-0.3289794921875,0.2083740234375,71.8994140625,-0.6103515625,-38.14697265625
37195.033784708,-0.7259521484375,-0.3289794921875,0.2083740234375,71.8994140625,-2.197265625,-38.14697265625
37195.03385875,-0.7259521484375,-0.3289794921875,0.2083740234375,71.8994140625,-2.197265625,-55.2978515625
37195.073769,-0.6702880859375,-0.3289794921875,0.2083740234375,71.8994140625,-2.197265625,-55.2978515625
37195.073865,-0.6702880859375,-0.1866455078125,0.2083740234375,71.8994140625,-2.197265625,-55.2978515625
37195.07483575,-0.6702880859375,-0.1866455078125,0.2054443359375,71.8994140625,-2.197265625,-55.2978515625
37195.074913125,-0.6702880859375,-0.1866455078125,0.2054443359375,-37.4755859375,-2.197265625,-55.2978515625
37195.098925,-0.546630859375,-0.1866455078125,0.2054443359375,-37.4755859375,-2.197265625,-55.2978515625
37195.098964,-0.546630859375,-0.0709228515625,0.2054443359375,-37.4755859375,-2.197265625,-55.2978515625
37195.098997166,-0.546630859375,-0.0709228515625,0.2706298828125,-37.4755859375,-2.197265625,-55.2978515625
37195.104111041,-0.546630859375,-0.0709228515625,0.2706298828125,-37.4755859375,-5.55419921875,-55.2978515625
37195.104177458,-0.546630859375,-0.0709228515625,0.2706298828125,-37.4755859375,-5.55419921875,-79.345703125
37195.148703791,-0.6102294921875,-0.0709228515625,0.2706298828125,-37.4755859375,-5.55419921875,-79.345703125
37195.14879525,-0.6102294921875,-0.0224609375,0.2706298828125,-37.4755859375,-5.55419921875,-79.345703125
37195.149674666,-0.6102294921875,-0.0224609375,0.171142578125,-37.4755859375,-5.55419921875,-79.345703125
37195.14977475,-0.6102294921875,-0.0224609375,0.171142578125,21.240234375,-5.55419921875,-79.345703125
37195.1658845,-0.6126708984375,-0.0224609375,0.171142578125,21.240234375,-5.55419921875,-79.345703125
37195.165948583,-0.6126708984375,-0.08544921875,0.171142578125,21.240234375,-5.55419921875,-79.345703125
37195.165992291,-0.6126708984375,-0.08544921875,0.1383056640625,21.240234375,-5.55419921875,-79.345703125
37195.182615958,-0.6126708984375,-0.08544921875,0.1383056640625,21.240234375,0.54931640625,-79.345703125
37195.182661,-0.6126708984375,-0.08544921875,0.1383056640625,21.240234375,0.54931640625,-31.79931640625
37195.19906375,-0.69921875,-0.08544921875,0.1383056640625,21.240234375,0.54931640625,-31.79931640625
37195.199107666,-0.69921875,-0.2406005859375,0.1383056640625,21.240234375,0.54931640625,-31.79931640625
37195.199149,-0.69921875,-0.2406005859375,-0.0166015625,21.240234375,0.54931640625,-31.79931640625
37195.223575625,-0.69921875,-0.2406005859375,-0.0166015625,21.240234375,-12.26806640625,-31.79931640625
37195.223705625,-0.69921875,-0.2406005859375,-0.0166015625,21.240234375,-12.26806640625,-6.7138671875
37195.28419125,-0.6864013671875,-0.2406005859375,-0.0166015625,21.240234375,-12.26806640625,-6.7138671875
37195.284343208,-0.6864013671875,-0.127197265625,-0.0166015625,21.240234375,-12.26806640625,-6.7138671875
37195.285448541,-0.6864013671875,-0.127197265625,-0.0166015625,21.240234375,-18.06640625,-6.7138671875
37195.285570708,-0.6864013671875,-0.127197265625,-0.0166015625,21.240234375,-18.06640625,-6.2255859375
37195.299748625,-0.6864013671875,-0.0892333984375,-0.0166015625,21.240234375,-18.06640625,-6.2255859375
37195.299807208,-0.6864013671875,-0.0892333984375,0.0294189453125,21.240234375,-18.06640625,-6.2255859375
37195.299860083,-0.6864013671875,-0.0892333984375,0.0294189453125,-29.052734375,-18.06640625,-6.2255859375
37195.3167635,-0.6864013671875,-0.0892333984375,0.0294189453125,-29.052734375,-18.06640625,8.60595703125
37195.332975875,-0.7242431640625,-0.0892333984375,0.0294189453125,-29.052734375,-18.06640625,8.60595703125
37195.333048708,-0.7242431640625,-0.0576171875,0.0294189453125,-29.052734375,-18.06640625,8.60595703125
37195.343951916,-0.7242431640625,-0.0576171875,0.0543212890625,-29.052734375,-18.06640625,8.60595703125
37195.349652583,-0.7242431640625,-0.0576171875,0.0543212890625,-29.052734375,-4.69970703125,8.60595703125
37195.349710541,-0.7242431640625,-0.0576171875,0.0543212890625,-29.052734375,-4.69970703125,53.3447265625
37195.388209875,-0.70166015625,-0.0576171875,0.0543212890625,-29.052734375,-4.69970703125,53.3447265625
37195.391359916,-0.70166015625,-0.128173828125,0.0543212890625,-29.052734375,-4.69970703125,53.3447265625
37195.418924625,-0.70166015625,-0.128173828125,0.0709228515625,-29.052734375,-4.69970703125,53.3447265625
37195.420292083,-0.70166015625,-0.128173828125,0.0709228515625,-29.052734375,-10.07080078125,53.3447265625
37195.420454541,-0.746337890625,-0.128173828125,0.0709228515625,-29.052734375,-10.07080078125,53.3447265625
37195.43421425,-0.746337890625,-0.1416015625,0.0709228515625,-29.052734375,-10.07080078125,53.3447265625
37195.434282583,-0.746337890625,-0.1416015625,0.0709228515625,-18.6767578125,-10.07080078125,53.3447265625
37195.43434475,-0.746337890625,-0.1416015625,0.0709228515625,-18.6767578125,-18.310546875,53.3447265625
37195.434998291,-0.746337890625,-0.1416015625,0.0709228515625,-18.6767578125,-18.310546875,68.05419921875
37195.464165541,-0.7567138671875,-0.1416015625,0.0709228515625,-18.6767578125,-18.310546875,68.05419921875
37195.464319416,-0.7567138671875,-0.1890869140625,0.0709228515625,-18.6767578125,-18.310546875,68.05419921875
37195.46507675,-0.7567138671875,-0.1890869140625,0.051025390625,-18.6767578125,-18.310546875,68.05419921875
37195.465216833,-0.7567138671875,-0.1890869140625,0.051025390625,-11.04736328125,-18.310546875,68.05419921875
37195.4840535,-0.868896484375,-0.1890869140625,0.051025390625,-11.04736328125,-18.310546875,68.05419921875
37195.484131291,-0.868896484375,-0.201171875,0.051025390625,-11.04736328125,-18.310546875,68.05419921875
37195.484202791,-0.868896484375,-0.201171875,0.1197509765625,-11.04736328125,-18.310546875,68.05419921875
37195.494194166,-0.868896484375,-0.201171875,0.1197509765625,-11.04736328125,-26.30615234375,68.05419921875
37195.500877541,-0.868896484375,-0.201171875,0.1197509765625,-11.04736328125,-26.30615234375,57.92236328125
37195.509188458,-0.6474609375,-0.201171875,0.1197509765625,-11.04736328125,-26.30615234375,57.92236328125
37195.509350625,-0.6474609375,-0.2833251953125,0.1197509765625,-11.04736328125,-26.30615234375,57.92236328125
37195.524144166,-0.6474609375,-0.2833251953125,0.151611328125,-11.04736328125,-26.30615234375,57.92236328125
37195.524343208,-0.6474609375,-0.2833251953125,0.151611328125,-11.04736328125,-19.04296875,57.92236328125
37195.524450791,-0.6474609375,-0.2833251953125,0.151611328125,-11.04736328125,-19.04296875,57.373046875
37195.539155208,-0.81982421875,-0.2833251953125,0.151611328125,-11.04736328125,-19.04296875,57.373046875
37195.539318666,-0.81982421875,-0.413330078125,0.151611328125,-11.04736328125,-19.04296875,57.373046875
37195.539839875,-0.81982421875,-0.413330078125,-0.042724609375,-11.04736328125,-19.04296875,57.373046875
37195.62934225,-0.81982421875,-0.413330078125,-0.042724609375,-11.04736328125,-23.92578125,57.373046875
37195.651037583,-0.81982421875,-0.413330078125,-0.042724609375,-11.04736328125,-23.92578125,56.7626953125
37195.651130833,-0.8887939453125,-0.413330078125,-0.042724609375,-11.04736328125,-23.92578125,56.7626953125
37195.651204708,-0.8887939453125,-0.413330078125,0.0235595703125,-11.04736328125,-23.92578125,56.7626953125
37195.651275625,-0.8887939453125,-0.413330078125,0.0235595703125,-11.04736328125,-15.80810546875,56.7626953125
37195.651345125,-0.8887939453125,-0.413330078125,0.0235595703125,-11.04736328125,-15.80810546875,44.73876953125
37195.659213708,-0.87939453125,-0.413330078125,0.0235595703125,-11.04736328125,-15.80810546875,44.73876953125
37195.659471791,-0.87939453125,-0.45458984375,0.0235595703125,-11.04736328125,-15.80810546875,44.73876953125
37195.659567833,-0.87939453125,-0.45458984375,0.0633544921875,-11.04736328125,-15.80810546875,44.73876953125
37195.674265708,-0.87939453125,-0.45458984375,0.0633544921875,-11.04736328125,5.92041015625,44.73876953125
37195.674437083,-0.87939453125,-0.45458984375,0.0633544921875,-11.04736328125,5.92041015625,23.4375
37195.749904375,-0.8211669921875,-0.45458984375,0.0633544921875,-11.04736328125,5.92041015625,23.4375
37195.750381125,-0.8211669921875,-0.4395751953125,0.0633544921875,-11.04736328125,5.92041015625,23.4375
37195.750633916,-0.8211669921875,-0.4395751953125,0.2012939453125,-11.04736328125,5.92041015625,23.4375
37195.764366708,-0.8211669921875,-0.4395751953125,0.2012939453125,-11.04736328125,12.939453125,23.4375
37195.764589583,-0.8211669921875,-0.4395751953125,0.2012939453125,-11.04736328125,12.939453125,9.27734375
37195.7844145,-0.8951416015625,-0.4395751953125,0.2012939453125,-11.04736328125,12.939453125,9.27734375
37195.784541875,-0.8951416015625,-0.3887939453125,0.2012939453125,-11.04736328125,12.939453125,9.27734375
37195.78461825,-0.8951416015625,-0.3887939453125,0.3583984375,-11.04736328125,12.939453125,9.27734375
37195.823901791,-0.8951416015625,-0.3887939453125,0.3583984375,-11.04736328125,17.63916015625,9.27734375
37195.824010125,-0.8951416015625,-0.3887939453125,0.3583984375,-11.04736328125,17.63916015625,-31.67724609375
37195.850702708,-1.0477294921875,-0.3887939453125,0.3583984375,-11.04736328125,17.63916015625,-31.67724609375
37195.850783541,-1.0477294921875,-0.2742919921875,0.3583984375,-11.04736328125,17.63916015625,-31.67724609375
37195.85085575,-1.0477294921875,-0.2742919921875,0.3583984375,-11.04736328125,17.08984375,-31.67724609375
37195.884116708,-1.090576171875,-0.2742919921875,0.3583984375,-11.04736328125,17.08984375,-31.67724609375
37195.885451916,-1.090576171875,-0.218017578125,0.3583984375,-11.04736328125,17.08984375,-31.67724609375
37195.885685833,-1.090576171875,-0.218017578125,0.3680419921875,-11.04736328125,17.08984375,-31.67724609375
37195.885814,-1.090576171875,-0.218017578125,0.3680419921875,-11.04736328125,24.84130859375,-31.67724609375
37195.900653041,-1.1363525390625,-0.218017578125,0.3680419921875,-11.04736328125,24.84130859375,-31.67724609375
37195.900733875,-1.1363525390625,-0.2791748046875,0.3680419921875,-11.04736328125,24.84130859375,-31.67724609375
37195.9008255,-1.1363525390625,-0.2791748046875,0.3045654296875,-11.04736328125,24.84130859375,-31.67724609375
37195.917591916,-1.1363525390625,-0.2791748046875,0.3045654296875,-11.04736328125,30.029296875,-31.67724609375
37195.91767225,-1.1363525390625,-0.2791748046875,0.3045654296875,-11.04736328125,30.029296875,-35.2783203125
37195.934073625,-1.0728759765625,-0.2791748046875,0.3045654296875,-11.04736328125,30.029296875,-35.2783203125
37195.934151291,-1.0728759765625,-0.08740234375,0.3045654296875,-11.04736328125,30.029296875,-35.2783203125
37195.934221791,-1.0728759765625,-0.08740234375,0.3858642578125,-11.04736328125,30.029296875,-35.2783203125
37195.944265541,-1.0728759765625,-0.08740234375,0.3858642578125,-11.04736328125,30.21240234375,-35.2783203125
37195.950399041,-1.0728759765625,-0.08740234375,0.3858642578125,-11.04736328125,30.21240234375,-35.82763671875
37195.959255291,-1.0816650390625,-0.08740234375,0.3858642578125,-11.04736328125,30.21240234375,-35.82763671875
37195.95945525,-1.0816650390625,-0.0987548828125,0.3858642578125,-11.04736328125,30.21240234375,-35.82763671875
37195.959562583,-1.0816650390625,-0.0987548828125,0.41748046875,-11.04736328125,30.21240234375,-35.82763671875
37195.974221958,-1.0816650390625,-0.0987548828125,0.41748046875,-11.04736328125,27.40478515625,-35.82763671875
37195.989485625,-1.0816650390625,-0.0987548828125,0.41748046875,-11.04736328125,27.40478515625,-29.6630859375
37195.989707833,-1.060546875,-0.0987548828125,0.41748046875,-11.04736328125,27.40478515625,-29.6630859375
37195.989806333,-1.060546875,-0.073974609375,0.41748046875,-11.04736328125,27.40478515625,-29.6630859375
37195.990538083,-1.060546875,-0.073974609375,0.4058837890625,-11.04736328125,27.40478515625,-29.6630859375
37196.049460916,-1.060546875,-0.073974609375,0.4058837890625,-11.04736328125,27.2216796875,-29.6630859375
37196.049761333,-1.060546875,-0.073974609375,0.4058837890625,-11.04736328125,27.2216796875,-20.99609375
37196.049918875,-1.0333251953125,-0.073974609375,0.4058837890625,-11.04736328125,27.2216796875,-20.99609375
37196.068208416,-1.0333251953125,-0.073974609375,0.3992919921875,-11.04736328125,27.2216796875,-20.99609375
37196.068309125,-1.0333251953125,-0.073974609375,0.3992919921875,-3.0517578125,27.2216796875,-20.99609375
37196.068398,-1.0333251953125,-0.073974609375,0.3992919921875,-3.0517578125,24.4140625,-20.99609375
37196.094148833,-1.0367431640625,-0.073974609375,0.3992919921875,-3.0517578125,24.4140625,-20.99609375
37196.094328375,-1.0367431640625,-0.149169921875,0.3992919921875,-3.0517578125,24.4140625,-20.99609375
37196.101118375,-1.0367431640625,-0.149169921875,0.421142578125,-3.0517578125,24.4140625,-20.99609375
37196.10121525,-1.0367431640625,-0.149169921875,0.421142578125,-10.3759765625,24.4140625,-20.99609375
37196.124862625,-1.0499267578125,-0.149169921875,0.421142578125,-10.3759765625,24.4140625,-20.99609375
37196.126154375,-1.0499267578125,-0.1807861328125,0.421142578125,-10.3759765625,24.4140625,-20.99609375
37196.127477333,-1.0499267578125,-0.1807861328125,0.4356689453125,-10.3759765625,24.4140625,-20.99609375
37196.127726875,-1.0499267578125,-0.1807861328125,0.4356689453125,-7.50732421875,24.4140625,-20.99609375
37196.147240041,-1.052978515625,-0.1807861328125,0.4356689453125,-7.50732421875,24.4140625,-20.99609375
37196.148700791,-1.052978515625,-0.1968994140625,0.4356689453125,-7.50732421875,24.4140625,-20.99609375
37196.148759583,-1.052978515625,-0.1968994140625,0.4322509765625,-7.50732421875,24.4140625,-20.99609375
37196.17096125,-1.052978515625,-0.1968994140625,0.4322509765625,-7.50732421875,14.95361328125,-20.99609375
37196.171751833,-1.052978515625,-0.1968994140625,0.4322509765625,-7.50732421875,14.95361328125,-22.8271484375
37196.18647725,-1.0992431640625,-0.1968994140625,0.4322509765625,-7.50732421875,14.95361328125,-22.8271484375
37196.186523833,-1.0992431640625,-0.206787109375,0.4322509765625,-7.50732421875,14.95361328125,-22.8271484375
37196.186560041,-1.0992431640625,-0.206787109375,0.4322509765625,-7.50732421875,10.92529296875,-22.8271484375
37196.186595291,-1.0992431640625,-0.206787109375,0.4322509765625,-7.50732421875,10.92529296875,-22.15576171875
37196.2182595,-1.0894775390625,-0.206787109375,0.4322509765625,-7.50732421875,10.92529296875,-22.15576171875
37196.218302916,-1.0894775390625,-0.1759033203125,0.4322509765625,-7.50732421875,10.92529296875,-22.15576171875
37196.218336541,-1.0894775390625,-0.1759033203125,0.4525146484375,-7.50732421875,10.92529296875,-22.15576171875
37196.218370583,-1.0894775390625,-0.1759033203125,0.4525146484375,-10.009765625,10.92529296875,-22.15576171875
37196.236124,-1.0467529296875,-0.1759033203125,0.4525146484375,-10.009765625,10.92529296875,-22.15576171875
37196.236168708,-1.0467529296875,-0.1546630859375,0.4525146484375,-10.009765625,10.92529296875,-22.15576171875
37196.236202833,-1.0467529296875,-0.1546630859375,0.4197998046875,-10.009765625,10.92529296875,-22.15576171875
37196.244020041,-1.0467529296875,-0.1546630859375,0.4197998046875,-10.009765625,1.708984375,-22.15576171875
37196.244057458,-1.0467529296875,-0.1546630859375,0.4197998046875,-10.009765625,1.708984375,-17.822265625
37196.258970958,-1.03662109375,-0.1546630859375,0.4197998046875,-10.009765625,1.708984375,-17.822265625
37196.259084291,-1.03662109375,-0.1368408203125,0.4197998046875,-10.009765625,1.708984375,-17.822265625
37196.259179291,-1.03662109375,-0.1368408203125,0.4002685546875,-10.009765625,1.708984375,-17.822265625
37196.273877916,-1.03662109375,-0.1368408203125,0.4002685546875,-10.009765625,-0.244140625,-17.822265625
37196.273972375,-1.03662109375,-0.1368408203125,0.4002685546875,-10.009765625,-0.244140625,-16.357421875
37196.2888935,-1.03662109375,-0.1368408203125,0.4002685546875,-10.009765625,-0.244140625,-16.357421875
37196.288986625,-1.03662109375,-0.1165771484375,0.4002685546875,-10.009765625,-0.244140625,-16.357421875
37196.290360833,-1.03662109375,-0.1165771484375,0.4207763671875,-10.009765625,-0.244140625,-16.357421875
37196.347884041,-1.03662109375,-0.1165771484375,0.4207763671875,-10.009765625,-0.54931640625,-16.357421875
37196.350109083,-1.03662109375,-0.1165771484375,0.4207763671875,-10.009765625,-0.54931640625,-13.916015625
37196.350155333,-1.039306640625,-0.1165771484375,0.4207763671875,-10.009765625,-0.54931640625,-13.916015625
37196.365534666,-1.039306640625,-0.1165771484375,0.3751220703125,-10.009765625,-0.54931640625,-13.916015625
37196.365579666,-1.039306640625,-0.1165771484375,0.3751220703125,-2.8076171875,-0.54931640625,-13.916015625
37196.365621666,-1.039306640625,-0.1165771484375,0.3751220703125,-2.8076171875,0.3662109375,-13.916015625
37196.382413583,-1.084228515625,-0.1165771484375,0.3751220703125,-2.8076171875,0.3662109375,-13.916015625
37196.382459583,-1.084228515625,-0.135009765625,0.3751220703125,-2.8076171875,0.3662109375,-13.916015625
37196.382501416,-1.084228515625,-0.135009765625,0.4434814453125,-2.8076171875,0.3662109375,-13.916015625
37196.409295083,-1.084228515625,-0.135009765625,0.4434814453125,-2.8076171875,-1.5869140625,-13.916015625
37196.415655916,-1.084228515625,-0.135009765625,0.4434814453125,-2.8076171875,-1.5869140625,-2.3193359375
37196.415813458,-1.126953125,-0.135009765625,0.4434814453125,-2.8076171875,-1.5869140625,-2.3193359375
37196.415875541,-1.126953125,-0.1351318359375,0.4434814453125,-2.8076171875,-1.5869140625,-2.3193359375
37196.424103458,-1.126953125,-0.1351318359375,0.4434814453125,-2.8076171875,-2.685546875,-2.3193359375
37196.424223583,-1.126953125,-0.1351318359375,0.4434814453125,-2.8076171875,-2.685546875,2.9296875
NEW_REP,,,,,,
37196.468886375,-1.161376953125,-0.1351318359375,0.4434814453125,-2.8076171875,-2.685546875,2.9296875
37196.469033458,-1.161376953125,-0.1600341796875,0.4434814453125,-2.8076171875,-2.685546875,2.9296875
37196.4697825,-1.161376953125,-0.1600341796875,0.46240234375,-2.8076171875,-2.685546875,2.9296875
37196.469890333,-1.161376953125,-0.1600341796875,0.46240234375,6.591796875,-2.685546875,2.9296875
37196.483960291,-1.1990966796875,-0.1600341796875,0.46240234375,6.591796875,-2.685546875,2.9296875
37196.484128708,-1.1990966796875,-0.2149658203125,0.46240234375,6.591796875,-2.685546875,2.9296875
37196.484202416,-1.1990966796875,-0.2149658203125,0.4976806640625,6.591796875,-2.685546875,2.9296875
37196.513394791,-1.1990966796875,-0.2149658203125,0.4976806640625,6.591796875,-7.26318359375,2.9296875
37196.515147041,-1.1990966796875,-0.2149658203125,0.4976806640625,6.591796875,-7.26318359375,18.4326171875
37196.515301458,-1.2508544921875,-0.2149658203125,0.4976806640625,6.591796875,-7.26318359375,18.4326171875
37196.515384458,-1.2508544921875,-0.2725830078125,0.4976806640625,6.591796875,-7.26318359375,18.4326171875
37196.533268958,-1.2508544921875,-0.2725830078125,0.4976806640625,6.591796875,-13.48876953125,18.4326171875
37196.53332775,-1.2508544921875,-0.2725830078125,0.4976806640625,6.591796875,-13.48876953125,32.1044921875
37196.544164083,-1.3018798828125,-0.2725830078125,0.4976806640625,6.591796875,-13.48876953125,32.1044921875
37196.550193708,-1.3018798828125,-0.2896728515625,0.4976806640625,6.591796875,-13.48876953125,32.1044921875
37196.550293708,-1.3018798828125,-0.2896728515625,0.4891357421875,6.591796875,-13.48876953125,32.1044921875
37196.559241416,-1.3018798828125,-0.2896728515625,0.4891357421875,6.591796875,-13.7939453125,32.1044921875
37196.559299416,-1.3018798828125,-0.2896728515625,0.4891357421875,6.591796875,-13.7939453125,39.36767578125
37196.574168458,-1.2884521484375,-0.2896728515625,0.4891357421875,6.591796875,-13.7939453125,39.36767578125
37196.574312875,-1.2884521484375,-0.308837890625,0.4891357421875,6.591796875,-13.7939453125,39.36767578125
37196.575301541,-1.2884521484375,-0.308837890625,0.51904296875,6.591796875,-13.7939453125,39.36767578125
37196.589135291,-1.2884521484375,-0.308837890625,0.51904296875,6.591796875,-13.00048828125,39.36767578125
37196.589273125,-1.2884521484375,-0.308837890625,0.51904296875,6.591796875,-13.00048828125,41.9921875
37196.663220166,-1.2930908203125,-0.308837890625,0.51904296875,6.591796875,-13.00048828125,41.9921875
37196.664138625,-1.2930908203125,-0.2989501953125,0.51904296875,6.591796875,-13.00048828125,41.9921875
37196.664299,-1.2930908203125,-0.2989501953125,0.534423828125,6.591796875,-13.00048828125,41.9921875
37196.665184291,-1.2930908203125,-0.2989501953125,0.534423828125,6.591796875,-13.5498046875,41.9921875
37196.6932375,-1.2301025390625,-0.2989501953125,0.534423828125,6.591796875,-13.5498046875,41.9921875
37196.70044775,-1.2301025390625,-0.1103515625,0.534423828125,6.591796875,-13.5498046875,41.9921875
37196.70062875,-1.2301025390625,-0.1103515625,0.50341796875,6.591796875,-13.5498046875,41.9921875
37196.700698833,-1.2301025390625,-0.1103515625,0.50341796875,5.06591796875,-13.5498046875,41.9921875
37196.709171208,-1.19482421875,-0.1103515625,0.50341796875,5.06591796875,-13.5498046875,41.9921875
37196.709359041,-1.19482421875,-0.1026611328125,0.50341796875,5.06591796875,-13.5498046875,41.9921875
37196.709440583,-1.19482421875,-0.1026611328125,0.480224609375,5.06591796875,-13.5498046875,41.9921875
37196.724227,-1.19482421875,-0.1026611328125,0.480224609375,5.06591796875,-6.40869140625,41.9921875
37196.72436925,-1.19482421875,-0.1026611328125,0.480224609375,5.06591796875,-6.40869140625,45.8984375
37196.739120458,-1.1220703125,-0.1026611328125,0.480224609375,5.06591796875,-6.40869140625,45.8984375
37196.739273375,-1.1220703125,-0.0552978515625,0.480224609375,5.06591796875,-6.40869140625,45.8984375
37196.739864125,-1.1220703125,-0.0552978515625,0.4073486328125,5.06591796875,-6.40869140625,45.8984375
37196.754134208,-1.1220703125,-0.0552978515625,0.4073486328125,5.06591796875,-5.9814453125,45.8984375
37196.754274666,-1.1220703125,-0.0552978515625,0.4073486328125,5.06591796875,-5.9814453125,39.00146484375
37196.76906925,-1.0582275390625,-0.0552978515625,0.4073486328125,5.06591796875,-5.9814453125,39.00146484375
37196.769249833,-1.0582275390625,0.0601806640625,0.4073486328125,5.06591796875,-5.9814453125,39.00146484375
37196.769345083,-1.0582275390625,0.0601806640625,0.3089599609375,5.06591796875,-5.9814453125,39.00146484375
37196.783975625,-1.0582275390625,0.0601806640625,0.3089599609375,5.06591796875,-2.62451171875,39.00146484375
37196.784140916,-1.0582275390625,0.0601806640625,0.3089599609375,5.06591796875,-2.62451171875,36.56005859375
37196.800320333,-0.9412841796875,0.0601806640625,0.3089599609375,5.06591796875,-2.62451171875,36.56005859375
37196.800397833,-0.9412841796875,0.0303955078125,0.3089599609375,5.06591796875,-2.62451171875,36.56005859375
37196.800474416,-0.9412841796875,0.0303955078125,0.412841796875,5.06591796875,-2.62451171875,36.56005859375
37196.816875541,-0.9412841796875,0.0303955078125,0.412841796875,5.06591796875,-0.732421875,36.56005859375
37196.816944916,-0.9412841796875,0.0303955078125,0.412841796875,5.06591796875,-0.732421875,30.70068359375
37196.84402525,-0.8385009765625,0.0303955078125,0.412841796875,5.06591796875,-0.732421875,30.70068359375
37196.850124375,-0.8385009765625,-0.1165771484375,0.412841796875,5.06591796875,-0.732421875,30.70068359375
37196.850229958,-0.8385009765625,-0.1165771484375,0.4285888671875,5.06591796875,-0.732421875,30.70068359375
37196.850292541,-0.8385009765625,-0.1165771484375,0.4285888671875,5.06591796875,-1.64794921875,30.70068359375
37196.859133083,-0.8546142578125,-0.1165771484375,0.4285888671875,5.06591796875,-1.64794921875,30.70068359375
37196.859309916,-0.8546142578125,-0.271240234375,0.4285888671875,5.06591796875,-1.64794921875,30.70068359375
37196.859399708,-0.8546142578125,-0.271240234375,0.166259765625,5.06591796875,-1.64794921875,30.70068359375
37196.888119125,-0.8546142578125,-0.271240234375,0.166259765625,5.06591796875,-4.0283203125,30.70068359375
37196.900346375,-0.8546142578125,-0.271240234375,0.166259765625,5.06591796875,-4.0283203125,12.26806640625
37196.900411291,-0.853759765625,-0.271240234375,0.166259765625,5.06591796875,-4.0283203125,12.26806640625
37196.900472666,-0.853759765625,-0.2059326171875,0.166259765625,5.06591796875,-4.0283203125,12.26806640625
37196.993943875,-0.853759765625,-0.2059326171875,0.166259765625,5.06591796875,0.48828125,12.26806640625
37196.994108666,-0.853759765625,-0.2059326171875,0.166259765625,5.06591796875,0.48828125,1.8310546875
37197.017387208,-0.6505126953125,-0.2059326171875,0.166259765625,5.06591796875,0.48828125,1.8310546875
37197.017451833,-0.6505126953125,-0.2059326171875,0.4356689453125,5.06591796875,0.48828125,1.8310546875
37197.017505916,-0.6505126953125,-0.2059326171875,0.4356689453125,5.06591796875,2.99072265625,1.8310546875
37197.017559458,-0.6505126953125,-0.2059326171875,0.4356689453125,5.06591796875,2.99072265625,-10.80322265625
37197.084511083,-0.7769775390625,-0.2059326171875,0.4356689453125,5.06591796875,2.99072265625,-10.80322265625
37197.084986083,-0.7769775390625,-0.136474609375,0.4356689453125,5.06591796875,2.99072265625,-10.80322265625
37197.085488833,-0.7769775390625,-0.136474609375,0.3963623046875,5.06591796875,2.99072265625,-10.80322265625
37197.085712458,-0.7769775390625,-0.136474609375,0.3963623046875,9.765625,2.99072265625,-10.80322265625
37197.114618708,-0.8228759765625,-0.136474609375,0.3963623046875,9.765625,2.99072265625,-10.80322265625
37197.114899541,-0.8228759765625,-0.0982666015625,0.3963623046875,9.765625,2.99072265625,-10.80322265625
37197.119857916,-0.8228759765625,-0.0982666015625,0.318359375,9.765625,2.99072265625,-10.80322265625
37197.119977708,-0.8228759765625,-0.0982666015625,0.318359375,9.765625,-16.845703125,-10.80322265625
37197.1584055,-0.8089599609375,-0.0982666015625,0.318359375,9.765625,-16.845703125,-10.80322265625
37197.174546375,-0.8089599609375,-0.234130859375,0.318359375,9.765625,-16.845703125,-10.80322265625
37197.174744541,-0.8089599609375,-0.234130859375,0.08251953125,9.765625,-16.845703125,-10.80322265625
37197.1748885,-0.8089599609375,-0.234130859375,0.08251953125,20.01953125,-16.845703125,-10.80322265625
37197.175060583,-0.7410888671875,-0.234130859375,0.08251953125,20.01953125,-16.845703125,-10.80322265625
37197.189276833,-0.7410888671875,-0.234130859375,0.0372314453125,20.01953125,-16.845703125,-10.80322265625
37197.189465208,-0.7410888671875,-0.234130859375,0.0372314453125,7.75146484375,-16.845703125,-10.80322265625
37197.189571875,-0.7410888671875,-0.234130859375,0.0372314453125,7.75146484375,-19.95849609375,-10.80322265625
37197.249393625,-0.6534423828125,-0.234130859375,0.0372314453125,7.75146484375,-19.95849609375,-10.80322265625
37197.249627125,-0.6534423828125,-0.1722412109375,0.0372314453125,7.75146484375,-19.95849609375,-10.80322265625
37197.250607458,-0.6534423828125,-0.1722412109375,0.1143798828125,7.75146484375,-19.95849609375,-10.80322265625
37197.279353,-0.6534423828125,-0.1722412109375,0.1143798828125,7.75146484375,-12.20703125,-10.80322265625
37197.279612333,-0.6534423828125,-0.1722412109375,0.1143798828125,7.75146484375,-12.20703125,-60.11962890625
37197.301200125,-0.6820068359375,-0.1722412109375,0.1143798828125,7.75146484375,-12.20703125,-60.11962890625
37197.301288791,-0.6820068359375,-0.217041015625,0.1143798828125,7.75146484375,-12.20703125,-60.11962890625
37197.301363208,-0.6820068359375,-0.217041015625,0.0604248046875,7.75146484375,-12.20703125,-60.11962890625
37197.342063208,-0.7574462890625,-0.217041015625,0.0604248046875,7.75146484375,-12.20703125,-60.11962890625
37197.34219,-0.7574462890625,-0.2606201171875,0.0604248046875,7.75146484375,-12.20703125,-60.11962890625
37197.342251791,-0.7574462890625,-0.2606201171875,0.025146484375,7.75146484375,-12.20703125,-60.11962890625
37197.342291166,-0.7574462890625,-0.2606201171875,0.025146484375,-2.9296875,-12.20703125,-60.11962890625
37197.36735825,-0.7921142578125,-0.2606201171875,0.025146484375,-2.9296875,-12.20703125,-60.11962890625
37197.367443416,-0.7921142578125,-0.17041015625,0.025146484375,-2.9296875,-12.20703125,-60.11962890625
37197.367516333,-0.7921142578125,-0.17041015625,0.0706787109375,-2.9296875,-12.20703125,-60.11962890625
37197.369115958,-0.7921142578125,-0.17041015625,0.0706787109375,-2.9296875,-10.986328125,-60.11962890625
37197.369260416,-0.7921142578125,-0.17041015625,0.0706787109375,-2.9296875,-10.986328125,-8.36181640625
37197.384281458,-0.7777099609375,-0.17041015625,0.0706787109375,-2.9296875,-10.986328125,-8.36181640625
37197.384363875,-0.7777099609375,-0.1217041015625,0.0706787109375,-2.9296875,-10.986328125,-8.36181640625
37197.38443475,-0.7777099609375,-0.1217041015625,0.056884765625,-2.9296875,-10.986328125,-8.36181640625
37197.414040791,-0.7777099609375,-0.1217041015625,0.056884765625,-2.9296875,-3.35693359375,-8.36181640625
37197.414315291,-0.7777099609375,-0.1217041015625,0.056884765625,-2.9296875,-3.35693359375,5.859375
37197.414906458,-0.742919921875,-0.1217041015625,0.056884765625,-2.9296875,-3.35693359375,5.859375
37197.415078,-0.742919921875,-0.202880859375,0.056884765625,-2.9296875,-3.35693359375,5.859375
37197.434479791,-0.742919921875,-0.202880859375,0.056884765625,-2.9296875,-2.9296875,5.859375
37197.434560416,-0.742919921875,-0.202880859375,0.056884765625,-2.9296875,-2.9296875,21.78955078125
37197.459102083,-0.7344970703125,-0.202880859375,0.056884765625,-2.9296875,-2.9296875,21.78955078125
37197.459316833,-0.7344970703125,-0.198486328125,0.056884765625,-2.9296875,-2.9296875,21.78955078125
37197.459962041,-0.7344970703125,-0.198486328125,0.080322265625,-2.9296875,-2.9296875,21.78955078125
37197.4601285,-0.7344970703125,-0.198486328125,0.080322265625,-2.9296875,-4.150390625,21.78955078125
37197.474170958,-0.686767578125,-0.198486328125,0.080322265625,-2.9296875,-4.150390625,21.78955078125
37197.4893665,-0.686767578125,-0.05078125,0.080322265625,-2.9296875,-4.150390625,21.78955078125
37197.489566916,-0.686767578125,-0.05078125,0.05224609375,-2.9296875,-4.150390625,21.78955078125
37197.489678583,-0.686767578125,-0.05078125,0.05224609375,-2.9296875,-2.9296875,21.78955078125
37197.490147666,-0.686767578125,-0.05078125,0.05224609375,-2.9296875,-2.9296875,44.25048828125
37197.549787041,-0.625732421875,-0.05078125,0.05224609375,-2.9296875,-2.9296875,44.25048828125
37197.550184291,-0.625732421875,-0.100341796875,0.05224609375,-2.9296875,-2.9296875,44.25048828125
37197.550357333,-0.625732421875,-0.100341796875,-0.0146484375,-2.9296875,-2.9296875,44.25048828125
37197.564230833,-0.625732421875,-0.100341796875,-0.0146484375,-2.9296875,-5.0048828125,44.25048828125
37197.56445525,-0.625732421875,-0.100341796875,-0.0146484375,-2.9296875,-5.0048828125,56.640625
37197.593695,-0.6990966796875,-0.100341796875,-0.0146484375,-2.9296875,-5.0048828125,56.640625
37197.595168125,-0.6990966796875,-0.1785888671875,-0.0146484375,-2.9296875,-5.0048828125,56.640625
37197.595489083,-0.6990966796875,-0.1785888671875,0.054443359375,-2.9296875,-5.0048828125,56.640625
37197.595598541,-0.6990966796875,-0.1785888671875,0.054443359375,-10.80322265625,-5.0048828125,56.640625
37197.617824833,-0.797607421875,-0.1785888671875,0.054443359375,-10.80322265625,-5.0048828125,56.640625
37197.62446925,-0.797607421875,-0.155517578125,0.054443359375,-10.80322265625,-5.0048828125,56.640625
37197.624706625,-0.797607421875,-0.155517578125,-0.036376953125,-10.80322265625,-5.0048828125,56.640625
37197.624837958,-0.797607421875,-0.155517578125,-0.036376953125,-10.80322265625,0.79345703125,56.640625
37197.625206916,-0.797607421875,-0.155517578125,-0.036376953125,-10.80322265625,0.79345703125,63.1103515625
37197.639242958,-0.71240234375,-0.155517578125,-0.036376953125,-10.80322265625,0.79345703125,63.1103515625
37197.639460958,-0.71240234375,-0.223876953125,-0.036376953125,-10.80322265625,0.79345703125,63.1103515625
37197.639535166,-0.71240234375,-0.223876953125,0.1993408203125,-10.80322265625,0.79345703125,63.1103515625
37197.654225541,-0.71240234375,-0.223876953125,0.1993408203125,-10.80322265625,3.96728515625,63.1103515625
37197.654388625,-0.71240234375,-0.223876953125,0.1993408203125,-10.80322265625,3.96728515625,56.15234375
37197.6831585,-0.7730712890625,-0.223876953125,0.1993408203125,-10.80322265625,3.96728515625,56.15234375
37197.684076625,-0.7730712890625,-0.2431640625,0.1993408203125,-10.80322265625,3.96728515625,56.15234375
37197.685886916,-0.7730712890625,-0.2431640625,0.1361083984375,-10.80322265625,3.96728515625,56.15234375
37197.686081375,-0.7730712890625,-0.2431640625,0.1361083984375,-13.36669921875,3.96728515625,56.15234375
37197.701145708,-0.7945556640625,-0.2431640625,0.1361083984375,-13.36669921875,3.96728515625,56.15234375
37197.701226958,-0.7945556640625,-0.1854248046875,0.1361083984375,-13.36669921875,3.96728515625,56.15234375
37197.701298666,-0.7945556640625,-0.1854248046875,0.1419677734375,-13.36669921875,3.96728515625,56.15234375
37197.718425041,-0.7945556640625,-0.1854248046875,0.1419677734375,-13.36669921875,3.173828125,56.15234375
37197.718522416,-0.7945556640625,-0.1854248046875,0.1419677734375,-13.36669921875,3.173828125,49.8046875
37197.743307333,-0.6951904296875,-0.1854248046875,0.1419677734375,-13.36669921875,3.173828125,49.8046875
37197.751467666,-0.6951904296875,-0.2813720703125,0.1419677734375,-13.36669921875,3.173828125,49.8046875
37197.751543166,-0.6951904296875,-0.2813720703125,0.2506103515625,-13.36669921875,3.173828125,49.8046875
37197.751613708,-0.6951904296875,-0.2813720703125,0.2506103515625,-13.36669921875,-0.3662109375,49.8046875
37197.759195625,-0.8424072265625,-0.2813720703125,0.2506103515625,-13.36669921875,-0.3662109375,49.8046875
37197.759359458,-0.8424072265625,-0.38818359375,0.2506103515625,-13.36669921875,-0.3662109375,49.8046875
37197.774530166,-0.8424072265625,-0.38818359375,0.0771484375,-13.36669921875,-0.3662109375,49.8046875
37197.774791708,-0.8424072265625,-0.38818359375,0.0771484375,-13.36669921875,-9.27734375,49.8046875
37197.774926708,-0.8424072265625,-0.38818359375,0.0771484375,-13.36669921875,-9.27734375,37.29248046875
37197.789353791,-1.0552978515625,-0.38818359375,0.0771484375,-13.36669921875,-9.27734375,37.29248046875
37197.789568875,-1.0552978515625,-0.4237060546875,0.0771484375,-13.36669921875,-9.27734375,37.29248046875
37197.790447,-1.0552978515625,-0.4237060546875,0.0972900390625,-13.36669921875,-9.27734375,37.29248046875
37197.850054625,-1.0552978515625,-0.4237060546875,0.0972900390625,-13.36669921875,-8.544921875,37.29248046875
37197.850453791,-1.0552978515625,-0.4237060546875,0.0972900390625,-13.36669921875,-8.544921875,20.69091796875
37197.850610083,-1.0111083984375,-0.4237060546875,0.0972900390625,-13.36669921875,-8.544921875,20.69091796875
37197.868481583,-1.0111083984375,-0.4237060546875,0.3489990234375,-13.36669921875,-8.544921875,20.69091796875
37197.868608958,-1.0111083984375,-0.4237060546875,0.3489990234375,-54.99267578125,-8.544921875,20.69091796875
37197.868705583,-1.0111083984375,-0.4237060546875,0.3489990234375,-54.99267578125,5.0048828125,20.69091796875
37197.894266625,-1.076416015625,-0.4237060546875,0.3489990234375,-54.99267578125,5.0048828125,20.69091796875
37197.894468875,-1.076416015625,-0.4835205078125,0.3489990234375,-54.99267578125,5.0048828125,20.69091796875
37197.8948915,-1.076416015625,-0.4835205078125,0.2095947265625,-54.99267578125,5.0048828125,20.69091796875
37197.895085916,-1.076416015625,-0.4835205078125,0.2095947265625,-54.99267578125,0.8544921875,20.69091796875
37197.909108291,-1.060546875,-0.4835205078125,0.2095947265625,-54.99267578125,0.8544921875,20.69091796875
37197.909346708,-1.060546875,-0.4019775390625,0.2095947265625,-54.99267578125,0.8544921875,20.69091796875
37197.909486583,-1.060546875,-0.4019775390625,0.310302734375,-54.99267578125,0.8544921875,20.69091796875
37197.924371958,-1.060546875,-0.4019775390625,0.310302734375,-54.99267578125,2.5634765625,20.69091796875
37197.95424575,-1.060546875,-0.4019775390625,0.310302734375,-54.99267578125,2.5634765625,-8.4228515625
37197.954435666,-0.999755859375,-0.4019775390625,0.310302734375,-54.99267578125,2.5634765625,-8.4228515625
37197.954825,-0.999755859375,-0.234130859375,0.310302734375,-54.99267578125,2.5634765625,-8.4228515625
37198.030067875,-0.999755859375,-0.234130859375,0.3287353515625,-54.99267578125,2.5634765625,-8.4228515625
37198.030694625,-0.999755859375,-0.234130859375,0.3287353515625,-54.99267578125,6.2255859375,-8.4228515625
37198.030890625,-0.999755859375,-0.234130859375,0.3287353515625,-54.99267578125,6.2255859375,-12.02392578125
37198.031012083,-1.1043701171875,-0.234130859375,0.3287353515625,-54.99267578125,6.2255859375,-12.02392578125
37198.089069708,-1.1043701171875,-0.234130859375,0.2811279296875,-54.99267578125,6.2255859375,-12.02392578125
37198.089530833,-1.1043701171875,-0.234130859375,0.2811279296875,-3.23486328125,6.2255859375,-12.02392578125
37198.149665125,-1.1043701171875,-0.234130859375,0.2811279296875,-3.23486328125,2.13623046875,-12.02392578125
37198.167236916,-0.925537109375,-0.234130859375,0.2811279296875,-3.23486328125,2.13623046875,-12.02392578125
37198.167543083,-0.925537109375,-0.234130859375,0.306640625,-3.23486328125,2.13623046875,-12.02392578125
37198.167616625,-0.925537109375,-0.234130859375,0.306640625,-3.23486328125,4.94384765625,-12.02392578125
37198.167687166,-0.925537109375,-0.234130859375,0.306640625,-3.23486328125,4.94384765625,-20.751953125
37198.194026041,-1.1275634765625,-0.234130859375,0.306640625,-3.23486328125,4.94384765625,-20.751953125
37198.210333666,-1.1275634765625,-0.3763427734375,0.306640625,-3.23486328125,4.94384765625,-20.751953125
37198.210585166,-1.1275634765625,-0.3763427734375,0.312255859375,-3.23486328125,4.94384765625,-20.751953125
37198.2107185,-1.1275634765625,-0.3763427734375,0.312255859375,-13.00048828125,4.94384765625,-20.751953125
37198.217109458,-1.1595458984375,-0.3763427734375,0.312255859375,-13.00048828125,4.94384765625,-20.751953125
37198.224351291,-1.1595458984375,-0.3763427734375,0.3447265625,-13.00048828125,4.94384765625,-20.751953125
37198.224522666,-1.1595458984375,-0.3763427734375,0.3447265625,-28.62548828125,4.94384765625,-20.751953125
37198.225400791,-1.1595458984375,-0.3763427734375,0.3447265625,-28.62548828125,9.27734375,-20.751953125
37198.239099125,-1.2239990234375,-0.3763427734375,0.3447265625,-28.62548828125,9.27734375,-20.751953125
37198.269118958,-1.2239990234375,-0.2689208984375,0.3447265625,-28.62548828125,9.27734375,-20.751953125
37198.269292708,-1.2239990234375,-0.2689208984375,0.365234375,-28.62548828125,9.27734375,-20.751953125
37198.269970875,-1.2239990234375,-0.2689208984375,0.365234375,-28.62548828125,8.97216796875,-20.751953125
37198.270153916,-1.2239990234375,-0.2689208984375,0.365234375,-28.62548828125,8.97216796875,-45.83740234375
37198.314939958,-1.2239990234375,-0.2689208984375,0.369140625,-28.62548828125,8.97216796875,-45.83740234375
37198.315151458,-1.2239990234375,-0.2689208984375,0.369140625,-2.9296875,8.97216796875,-45.83740234375
37198.315305375,-1.2239990234375,-0.2689208984375,0.369140625,-2.9296875,7.9345703125,-45.83740234375
37198.31546475,-1.1785888671875,-0.2689208984375,0.369140625,-2.9296875,7.9345703125,-45.83740234375
37198.343283166,-1.1785888671875,-0.2689208984375,0.3516845703125,-2.9296875,7.9345703125,-45.83740234375
37198.350576208,-1.1785888671875,-0.2689208984375,0.3516845703125,-5.615234375,7.9345703125,-45.83740234375
37198.350650291,-1.1785888671875,-0.2689208984375,0.3516845703125,-5.615234375,6.53076171875,-45.83740234375
37198.359375083,-1.0924072265625,-0.2689208984375,0.3516845703125,-5.615234375,6.53076171875,-45.83740234375
37198.359578458,-1.0924072265625,-0.11767578125,0.3516845703125,-5.615234375,6.53076171875,-45.83740234375
37198.359685541,-1.0924072265625,-0.11767578125,0.341796875,-5.615234375,6.53076171875,-45.83740234375
37198.374016875,-1.0924072265625,-0.11767578125,0.341796875,-5.615234375,6.53076171875,-22.64404296875
37198.390079,-1.0289306640625,-0.11767578125,0.341796875,-5.615234375,6.53076171875,-22.64404296875
37198.390260875,-1.0289306640625,-0.07080078125,0.341796875,-5.615234375,6.53076171875,-22.64404296875
37198.390321291,-1.0289306640625,-0.07080078125,0.3524169921875,-5.615234375,6.53076171875,-22.64404296875
37198.449371916,-1.0289306640625,-0.07080078125,0.3524169921875,-5.615234375,5.67626953125,-22.64404296875
37198.449647208,-1.0289306640625,-0.07080078125,0.3524169921875,-5.615234375,5.67626953125,-20.69091796875
37198.449783083,-1.028076171875,-0.07080078125,0.3524169921875,-5.615234375,5.67626953125,-20.69091796875
37198.479021291,-1.028076171875,-0.07080078125,0.3353271484375,-5.615234375,5.67626953125,-20.69091796875
37198.480487958,-1.028076171875,-0.07080078125,0.3353271484375,-8.48388671875,5.67626953125,-20.69091796875
37198.480757125,-1.028076171875,-0.07080078125,0.3353271484375,-8.48388671875,3.0517578125,-20.69091796875
37198.480870541,-1.051513671875,-0.07080078125,0.3353271484375,-8.48388671875,3.0517578125,-20.69091796875
NEW_REP,,,,,,
37198.500553458,-1.051513671875,-0.07080078125,0.3585205078125,-8.48388671875,3.0517578125,-20.69091796875
37198.500637958,-1.051513671875,-0.07080078125,0.3585205078125,1.77001953125,3.0517578125,-20.69091796875
37198.500698375,-1.051513671875,-0.07080078125,0.3585205078125,1.77001953125,0.48828125,-20.69091796875
37198.509261333,-1.0906982421875,-0.07080078125,0.3585205078125,1.77001953125,0.48828125,-20.69091796875
37198.509473333,-1.0906982421875,-0.0396728515625,0.3585205078125,1.77001953125,0.48828125,-20.69091796875
37198.509564625,-1.0906982421875,-0.0396728515625,0.348388671875,1.77001953125,0.48828125,-20.69091796875
37198.524241,-1.0906982421875,-0.0396728515625,0.348388671875,1.77001953125,-0.6103515625,-20.69091796875
37198.524379041,-1.0906982421875,-0.0396728515625,0.348388671875,1.77001953125,-0.6103515625,1.77001953125
37198.554090083,-1.1375732421875,-0.0396728515625,0.348388671875,1.77001953125,-0.6103515625,1.77001953125
37198.567072708,-1.1375732421875,-0.0850830078125,0.348388671875,1.77001953125,-0.6103515625,1.77001953125
37198.567146333,-1.1375732421875,-0.0850830078125,0.41259765625,1.77001953125,-0.6103515625,1.77001953125
37198.567207583,-1.1375732421875,-0.0850830078125,0.41259765625,1.77001953125,-2.99072265625,1.77001953125
37198.584332166,-1.1771240234375,-0.0850830078125,0.41259765625,1.77001953125,-2.99072265625,1.77001953125
37198.584508291,-1.1771240234375,-0.0902099609375,0.41259765625,1.77001953125,-2.99072265625,1.77001953125
37198.584601875,-1.1771240234375,-0.0902099609375,0.42626953125,1.77001953125,-2.99072265625,1.77001953125
37198.585090166,-1.1771240234375,-0.0902099609375,0.42626953125,1.40380859375,-2.99072265625,1.77001953125
37198.614078083,-1.205322265625,-0.0902099609375,0.42626953125,1.40380859375,-2.99072265625,1.77001953125
37198.614227625,-1.205322265625,-0.1312255859375,0.42626953125,1.40380859375,-2.99072265625,1.77001953125
37198.614941666,-1.205322265625,-0.1312255859375,0.4522705078125,1.40380859375,-2.99072265625,1.77001953125
37198.615082166,-1.205322265625,-0.1312255859375,0.4522705078125,30.70068359375,-2.99072265625,1.77001953125
37198.643711708,-1.2371826171875,-0.1312255859375,0.4522705078125,30.70068359375,-2.99072265625,1.77001953125
37198.6452125,-1.2371826171875,-0.1629638671875,0.4522705078125,30.70068359375,-2.99072265625,1.77001953125
37198.645460541,-1.2371826171875,-0.1629638671875,0.4510498046875,30.70068359375,-2.99072265625,1.77001953125
37198.645594291,-1.2371826171875,-0.1629638671875,0.4510498046875,30.70068359375,-3.2958984375,1.77001953125
37198.674198041,-1.232177734375,-0.1629638671875,0.4510498046875,30.70068359375,-3.2958984375,1.77001953125
37198.674389458,-1.232177734375,-0.1990966796875,0.4510498046875,30.70068359375,-3.2958984375,1.77001953125
37198.675270625,-1.232177734375,-0.1990966796875,0.474365234375,30.70068359375,-3.2958984375,1.77001953125
37198.675482375,-1.232177734375,-0.1990966796875,0.474365234375,30.70068359375,-2.86865234375,1.77001953125
37198.750674166,-1.247802734375,-0.1990966796875,0.474365234375,30.70068359375,-2.86865234375,1.77001953125
37198.751443625,-1.247802734375,-0.215087890625,0.474365234375,30.70068359375,-2.86865234375,1.77001953125
37198.751645375,-1.247802734375,-0.215087890625,0.4656982421875,30.70068359375,-2.86865234375,1.77001953125
37198.751864458,-1.247802734375,-0.215087890625,0.4656982421875,13.00048828125,-2.86865234375,1.77001953125
37198.764304625,-1.2115478515625,-0.215087890625,0.4656982421875,13.00048828125,-2.86865234375,1.77001953125
37198.764591291,-1.2115478515625,-0.2296142578125,0.4656982421875,13.00048828125,-2.86865234375,1.77001953125
37198.764746541,-1.2115478515625,-0.2296142578125,0.485107421875,13.00048828125,-2.86865234375,1.77001953125
37198.809615041,-1.2115478515625,-0.2296142578125,0.485107421875,13.00048828125,-1.3427734375,1.77001953125
37198.810060416,-1.2115478515625,-0.2296142578125,0.485107421875,13.00048828125,-1.3427734375,52.55126953125
37198.810361875,-1.201416015625,-0.2296142578125,0.485107421875,13.00048828125,-1.3427734375,52.55126953125
37198.810520291,-1.201416015625,-0.178466796875,0.485107421875,13.00048828125,-1.3427734375,52.55126953125
37198.839181916,-1.201416015625,-0.178466796875,0.485107421875,13.00048828125,-0.6103515625,52.55126953125
37198.839391833,-1.201416015625,-0.178466796875,0.485107421875,13.00048828125,-0.6103515625,51.26953125
37198.856040041,-1.099853515625,-0.178466796875,0.485107421875,13.00048828125,-0.6103515625,51.26953125
37198.856298208,-1.099853515625,-0.2318115234375,0.485107421875,13.00048828125,-0.6103515625,51.26953125
37198.856407541,-1.099853515625,-0.2318115234375,0.3956298828125,13.00048828125,-0.6103515625,51.26953125
37198.900265916,-1.082275390625,-0.2318115234375,0.3956298828125,13.00048828125,-0.6103515625,51.26953125
37198.90613775,-1.082275390625,-0.3587646484375,0.3956298828125,13.00048828125,-0.6103515625,51.26953125
37198.906243125,-1.082275390625,-0.3587646484375,0.3526611328125,13.00048828125,-0.6103515625,51.26953125
37198.906333708,-1.082275390625,-0.3587646484375,0.3526611328125,37.41455078125,-0.6103515625,51.26953125
37198.91451725,-1.067626953125,-0.3587646484375,0.3526611328125,37.41455078125,-0.6103515625,51.26953125
37198.914850833,-1.067626953125,-0.3599853515625,0.3526611328125,37.41455078125,-0.6103515625,51.26953125
37198.914989666,-1.067626953125,-0.3599853515625,0.3173828125,37.41455078125,-0.6103515625,51.26953125
37198.934228875,-1.067626953125,-0.3599853515625,0.3173828125,37.41455078125,3.0517578125,51.26953125
37198.93431475,-1.067626953125,-0.3599853515625,0.3173828125,37.41455078125,3.0517578125,35.33935546875
37198.958322083,-0.915771484375,-0.3599853515625,0.3173828125,37.41455078125,3.0517578125,35.33935546875
37198.9599495,-0.915771484375,-0.1885986328125,0.3173828125,37.41455078125,3.0517578125,35.33935546875
37198.960156125,-0.915771484375,-0.1885986328125,0.310546875,37.41455078125,3.0517578125,35.33935546875
37198.9603065,-0.915771484375,-0.1885986328125,0.310546875,37.41455078125,-2.3193359375,35.33935546875
37198.974347916,-0.84326171875,-0.1885986328125,0.310546875,37.41455078125,-2.3193359375,35.33935546875
37198.974559416,-0.84326171875,-0.293212890625,0.310546875,37.41455078125,-2.3193359375,35.33935546875
37198.974667125,-0.84326171875,-0.293212890625,0.283447265625,37.41455078125,-2.3193359375,35.33935546875
37198.989207458,-0.84326171875,-0.293212890625,0.283447265625,37.41455078125,-9.09423828125,35.33935546875
37198.9893555,-0.84326171875,-0.293212890625,0.283447265625,37.41455078125,-9.09423828125,0.67138671875
37199.0494315,-0.840576171875,-0.293212890625,0.283447265625,37.41455078125,-9.09423828125,0.67138671875
37199.0504625,-0.840576171875,-0.32080078125,0.283447265625,37.41455078125,-9.09423828125,0.67138671875
37199.050734958,-0.840576171875,-0.32080078125,0.2545166015625,37.41455078125,-9.09423828125,0.67138671875
37199.064245166,-0.840576171875,-0.32080078125,0.2545166015625,37.41455078125,-11.90185546875,0.67138671875
37199.064453625,-0.840576171875,-0.32080078125,0.2545166015625,37.41455078125,-11.90185546875,-12.5732421875
37199.10948775,-0.8121337890625,-0.32080078125,0.2545166015625,37.41455078125,-11.90185546875,-12.5732421875
37199.109689208,-0.8121337890625,-0.1781005859375,0.2545166015625,37.41455078125,-11.90185546875,-12.5732421875
37199.109996375,-0.8121337890625,-0.1781005859375,0.1572265625,37.41455078125,-11.90185546875,-12.5732421875
37199.110261208,-0.8121337890625,-0.1781005859375,0.1572265625,-18.12744140625,-11.90185546875,-12.5732421875
37199.13475775,-0.809814453125,-0.1781005859375,0.1572265625,-18.12744140625,-11.90185546875,-12.5732421875
37199.169357041,-0.809814453125,-0.0501708984375,0.1572265625,-18.12744140625,-11.90185546875,-12.5732421875
37199.1695575,-0.809814453125,-0.0501708984375,0.2452392578125,-18.12744140625,-11.90185546875,-12.5732421875
37199.170263541,-0.809814453125,-0.0501708984375,0.2452392578125,-18.12744140625,-13.3056640625,-12.5732421875
37199.170460541,-0.809814453125,-0.0501708984375,0.2452392578125,-18.12744140625,-13.3056640625,-31.67724609375
37199.199247666,-0.809814453125,-0.2308349609375,0.2452392578125,-18.12744140625,-13.3056640625,-31.67724609375
37199.199448916,-0.809814453125,-0.2308349609375,0.2615966796875,-18.12744140625,-13.3056640625,-31.67724609375
37199.200020208,-0.809814453125,-0.2308349609375,0.2615966796875,13.61083984375,-13.3056640625,-31.67724609375
37199.200211791,-0.809814453125,-0.2308349609375,0.2615966796875,13.61083984375,-13.3056640625,-40.52734375
37199.244840708,-0.837646484375,-0.2308349609375,0.2615966796875,13.61083984375,-13.3056640625,-40.52734375
37199.24653025,-0.837646484375,-0.171630859375,0.2615966796875,13.61083984375,-13.3056640625,-40.52734375
37199.246816625,-0.837646484375,-0.171630859375,0.12109375,13.61083984375,-13.3056640625,-40.52734375
37199.246929083,-0.837646484375,-0.171630859375,0.12109375,13.61083984375,-13.12255859375,-40.52734375
37199.365700416,-0.7379150390625,-0.171630859375,0.12109375,13.61083984375,-13.12255859375,-40.52734375
37199.366299708,-0.7379150390625,-0.1488037109375,0.12109375,13.61083984375,-13.12255859375,-40.52734375
37199.366528041,-0.7379150390625,-0.1488037109375,0.20654296875,13.61083984375,-13.12255859375,-40.52734375
37199.366680958,-0.7379150390625,-0.1488037109375,0.20654296875,13.61083984375,-7.8125,-40.52734375
37199.409450583,-0.6519775390625,-0.1488037109375,0.20654296875,13.61083984375,-7.8125,-40.52734375
37199.409684583,-0.6519775390625,-0.0889892578125,0.20654296875,13.61083984375,-7.8125,-40.52734375
37199.410161666,-0.6519775390625,-0.0889892578125,0.1181640625,13.61083984375,-7.8125,-40.52734375
37199.4103925,-0.6519775390625,-0.0889892578125,0.1181640625,54.3212890625,-7.8125,-40.52734375
37199.439068166,-0.7388916015625,-0.0889892578125,0.1181640625,54.3212890625,-7.8125,-40.52734375
37199.44060875,-0.7388916015625,-0.4027099609375,0.1181640625,54.3212890625,-7.8125,-40.52734375
37199.440870291,-0.7388916015625,-0.4027099609375,-0.0673828125,54.3212890625,-7.8125,-40.52734375
37199.440995791,-0.7388916015625,-0.4027099609375,-0.0673828125,41.1376953125,-7.8125,-40.52734375
37199.469163,-0.7620849609375,-0.4027099609375,-0.0673828125,41.1376953125,-7.8125,-40.52734375
37199.46933475,-0.7620849609375,-0.1610107421875,-0.0673828125,41.1376953125,-7.8125,-40.52734375
37199.470255416,-0.7620849609375,-0.1610107421875,0.073486328125,41.1376953125,-7.8125,-40.52734375
37199.470416458,-0.7620849609375,-0.1610107421875,0.073486328125,-50.35400390625,-7.8125,-40.52734375
37199.484232583,-0.7750244140625,-0.1610107421875,0.073486328125,-50.35400390625,-7.8125,-40.52734375
37199.484442083,-0.7750244140625,-0.12646484375,0.073486328125,-50.35400390625,-7.8125,-40.52734375
37199.484533791,-0.7750244140625,-0.12646484375,0.115966796875,-50.35400390625,-7.8125,-40.52734375
37199.501016583,-0.7750244140625,-0.12646484375,0.115966796875,-50.35400390625,-5.37109375,-40.52734375
37199.50110375,-0.7750244140625,-0.12646484375,0.115966796875,-50.35400390625,-5.37109375,13.85498046875
37199.517353291,-0.796875,-0.12646484375,0.115966796875,-50.35400390625,-5.37109375,13.85498046875
37199.55965625,-0.796875,-0.2432861328125,0.115966796875,-50.35400390625,-5.37109375,13.85498046875
37199.559869125,-0.796875,-0.2432861328125,0.0791015625,-50.35400390625,-5.37109375,13.85498046875
37199.560300625,-0.796875,-0.2432861328125,0.0791015625,-50.35400390625,6.16455078125,13.85498046875
37199.560526541,-0.796875,-0.2432861328125,0.0791015625,-50.35400390625,6.16455078125,29.6630859375
37199.5842075,-0.796875,-0.2432861328125,0.059326171875,-50.35400390625,6.16455078125,29.6630859375
37199.584289583,-0.796875,-0.2432861328125,0.059326171875,19.71435546875,6.16455078125,29.6630859375
37199.584361,-0.796875,-0.2432861328125,0.059326171875,19.71435546875,11.29150390625,29.6630859375
37199.650553375,-0.876708984375,-0.2432861328125,0.059326171875,19.71435546875,11.29150390625,29.6630859375
37199.651303708,-0.876708984375,-0.224853515625,0.059326171875,19.71435546875,11.29150390625,29.6630859375
37199.651470916,-0.876708984375,-0.224853515625,0.0469970703125,19.71435546875,11.29150390625,29.6630859375
37199.651573958,-0.876708984375,-0.224853515625,0.0469970703125,23.4375,11.29150390625,29.6630859375
37199.678394208,-0.729248046875,-0.224853515625,0.0469970703125,23.4375,11.29150390625,29.6630859375
37199.685100875,-0.729248046875,-0.2054443359375,0.0469970703125,23.4375,11.29150390625,29.6630859375
37199.685193291,-0.729248046875,-0.2054443359375,0.1343994140625,23.4375,11.29150390625,29.6630859375
37199.685281916,-0.729248046875,-0.2054443359375,0.1343994140625,23.4375,16.4794921875,29.6630859375
37199.708235916,-0.737060546875,-0.2054443359375,0.1343994140625,23.4375,16.4794921875,29.6630859375
37199.709976958,-0.737060546875,-0.2440185546875,0.1343994140625,23.4375,16.4794921875,29.6630859375
37199.710205666,-0.737060546875,-0.2440185546875,0.271728515625,23.4375,16.4794921875,29.6630859375
37199.710333041,-0.737060546875,-0.2440185546875,0.271728515625,-71.22802734375,16.4794921875,29.6630859375
37199.753793291,-0.6370849609375,-0.2440185546875,0.271728515625,-71.22802734375,16.4794921875,29.6630859375
37199.755284958,-0.6370849609375,-0.15283203125,0.271728515625,-71.22802734375,16.4794921875,29.6630859375
37199.755624875,-0.6370849609375,-0.15283203125,0.1861572265625,-71.22802734375,16.4794921875,29.6630859375
37199.755789583,-0.6370849609375,-0.15283203125,0.1861572265625,-71.22802734375,-4.69970703125,29.6630859375
37199.784250833,-0.7008056640625,-0.15283203125,0.1861572265625,-71.22802734375,-4.69970703125,29.6630859375
37199.784334083,-0.7008056640625,-0.0809326171875,0.1861572265625,-71.22802734375,-4.69970703125,29.6630859375
37199.784406,-0.7008056640625,-0.0809326171875,0.083984375,-71.22802734375,-4.69970703125,29.6630859375
37199.784605666,-0.7008056640625,-0.0809326171875,0.083984375,-71.22802734375,-17.39501953125,29.6630859375
37199.784715708,-0.7008056640625,-0.0809326171875,0.083984375,-71.22802734375,-17.39501953125,47.91259765625
37199.801093791,-0.75244140625,-0.0809326171875,0.083984375,-71.22802734375,-17.39501953125,47.91259765625
37199.801179958,-0.75244140625,-0.28173828125,0.083984375,-71.22802734375,-17.39501953125,47.91259765625
37199.829304,-0.75244140625,-0.28173828125,0.2786865234375,-71.22802734375,-17.39501953125,47.91259765625
37199.829467208,-0.75244140625,-0.28173828125,0.2786865234375,-71.22802734375,-19.04296875,47.91259765625
37199.829973416,-0.75244140625,-0.28173828125,0.2786865234375,-71.22802734375,-19.04296875,38.0859375
37199.830128416,-0.817626953125,-0.28173828125,0.2786865234375,-71.22802734375,-19.04296875,38.0859375
37199.850849333,-0.817626953125,-0.28173828125,0.2431640625,-71.22802734375,-19.04296875,38.0859375
37199.850929125,-0.817626953125,-0.28173828125,0.2431640625,-51.69677734375,-19.04296875,38.0859375
37199.851000375,-0.817626953125,-0.28173828125,0.2431640625,-51.69677734375,-21.54541015625,38.0859375
37199.859367041,-0.8355712890625,-0.28173828125,0.2431640625,-51.69677734375,-21.54541015625,38.0859375
37199.859585166,-0.8355712890625,-0.1749267578125,0.2431640625,-51.69677734375,-21.54541015625,38.0859375
37199.859689458,-0.8355712890625,-0.1749267578125,0.0772705078125,-51.69677734375,-21.54541015625,38.0859375
37199.874592,-0.8355712890625,-0.1749267578125,0.0772705078125,-51.69677734375,-18.6767578125,38.0859375
37199.874773916,-0.8355712890625,-0.1749267578125,0.0772705078125,-51.69677734375,-18.6767578125,37.53662109375
37199.949078875,-0.76611328125,-0.1749267578125,0.0772705078125,-51.69677734375,-18.6767578125,37.53662109375
37199.9501995,-0.76611328125,-0.2000732421875,0.0772705078125,-51.69677734375,-18.6767578125,37.53662109375
37199.950533125,-0.76611328125,-0.2000732421875,0.2247314453125,-51.69677734375,-18.6767578125,37.53662109375
37199.950651833,-0.76611328125,-0.2000732421875,0.2247314453125,-51.69677734375,-19.34814453125,37.53662109375
37199.964314375,-0.874267578125,-0.2000732421875,0.2247314453125,-51.69677734375,-19.34814453125,37.53662109375
37199.966635083,-0.874267578125,-0.26904296875,0.2247314453125,-51.69677734375,-19.34814453125,37.53662109375
37199.970945541,-0.874267578125,-0.26904296875,0.22119140625,-51.69677734375,-19.34814453125,37.53662109375
37199.995910041,-0.874267578125,-0.26904296875,0.22119140625,-51.69677734375,-20.5078125,37.53662109375
37199.996312291,-0.874267578125,-0.26904296875,0.22119140625,-51.69677734375,-20.5078125,28.50341796875
37199.996500875,-0.945556640625,-0.26904296875,0.22119140625,-51.69677734375,-20.5078125,28.50341796875
37199.996611958,-0.945556640625,-0.142578125,0.22119140625,-51.69677734375,-20.5078125,28.50341796875
37200.0322975,-0.945556640625,-0.142578125,0.22119140625,-51.69677734375,-9.6435546875,28.50341796875
37200.051917625,-0.945556640625,-0.142578125,0.22119140625,-51.69677734375,-9.6435546875,9.1552734375
37200.054937875,-1.1328125,-0.142578125,0.22119140625,-51.69677734375,-9.6435546875,9.1552734375
37200.057221375,-1.1328125,-0.310546875,0.22119140625,-51.69677734375,-9.6435546875,9.1552734375
37200.057621458,-1.1328125,-0.310546875,0.214599609375,-51.69677734375,-9.6435546875,9.1552734375
37200.084221916,-0.966064453125,-0.310546875,0.214599609375,-51.69677734375,-9.6435546875,9.1552734375
37200.085284583,-0.966064453125,-0.2459716796875,0.214599609375,-51.69677734375,-9.6435546875,9.1552734375
37200.100644791,-0.966064453125,-0.2459716796875,0.260986328125,-51.69677734375,-9.6435546875,9.1552734375
37200.10099125,-0.966064453125,-0.2459716796875,0.260986328125,-51.69677734375,-9.6435546875,-1.46484375
37200.129108875,-1.046875,-0.2459716796875,0.260986328125,-51.69677734375,-9.6435546875,-1.46484375
37200.129232375,-1.046875,-0.1292724609375,0.260986328125,-51.69677734375,-9.6435546875,-1.46484375
37200.130449833,-1.046875,-0.1292724609375,0.207763671875,-51.69677734375,-9.6435546875,-1.46484375
37200.144273458,-1.1097412109375,-0.1292724609375,0.207763671875,-51.69677734375,-9.6435546875,-1.46484375
37200.144367125,-1.1097412109375,-0.322265625,0.207763671875,-51.69677734375,-9.6435546875,-1.46484375
37200.159100791,-1.1097412109375,-0.322265625,0.2237548828125,-51.69677734375,-9.6435546875,-1.46484375
37200.159197375,-1.1097412109375,-0.322265625,0.2237548828125,-51.69677734375,-9.6435546875,-11.04736328125
37200.183423208,-0.9674072265625,-0.322265625,0.2237548828125,-51.69677734375,-9.6435546875,-11.04736328125
37200.183470416,-0.9674072265625,-0.307861328125,0.2237548828125,-51.69677734375,-9.6435546875,-11.04736328125
37200.18350475,-0.9674072265625,-0.307861328125,0.255126953125,-51.69677734375,-9.6435546875,-11.04736328125
37200.249568208,-0.9674072265625,-0.307861328125,0.255126953125,-51.69677734375,14.09912109375,-11.04736328125
37200.24984025,-0.9674072265625,-0.307861328125,0.255126953125,-51.69677734375,14.09912109375,-23.49853515625
37200.249893708,-1.1177978515625,-0.307861328125,0.255126953125,-51.69677734375,14.09912109375,-23.49853515625
37200.278512458,-1.1177978515625,-0.307861328125,0.255126953125,-51.69677734375,7.38525390625,-23.49853515625
37200.299732666,-1.1177978515625,-0.307861328125,0.255126953125,-51.69677734375,7.38525390625,-26.611328125
37200.2997745,-1.1312255859375,-0.307861328125,0.255126953125,-51.69677734375,7.38525390625,-26.611328125
37200.299808375,-1.1312255859375,-0.2916259765625,0.255126953125,-51.69677734375,7.38525390625,-26.611328125
37200.299839333,-1.1312255859375,-0.2916259765625,0.255126953125,-51.69677734375,13.916015625,-26.611328125
37200.316326541,-1.248779296875,-0.2916259765625,0.255126953125,-51.69677734375,13.916015625,-26.611328125
37200.316371583,-1.248779296875,-0.234375,0.255126953125,-51.69677734375,13.916015625,-26.611328125
37200.3164065,-1.248779296875,-0.234375,0.291748046875,-51.69677734375,13.916015625,-26.611328125
37200.324059833,-1.248779296875,-0.234375,0.291748046875,-51.69677734375,14.404296875,-26.611328125
37200.3240995,-1.248779296875,-0.234375,0.291748046875,-51.69677734375,14.404296875,-40.58837890625
37200.35483875,-1.20556640625,-0.234375,0.291748046875,-51.69677734375,14.404296875,-40.58837890625
37200.354967,-1.20556640625,-0.23095703125,0.291748046875,-51.69677734375,14.404296875,-40.58837890625
37200.355230875,-1.20556640625,-0.23095703125,0.3212890625,-51.69677734375,14.404296875,-40.58837890625
37200.355544291,-1.20556640625,-0.23095703125,0.3212890625,0.8544921875,14.404296875,-40.58837890625
37200.385877291,-1.17431640625,-0.23095703125,0.3212890625,0.8544921875,14.404296875,-40.58837890625
37200.385921833,-1.17431640625,-0.2154541015625,0.3212890625,0.8544921875,14.404296875,-40.58837890625
37200.385955041,-1.17431640625,-0.2154541015625,0.323486328125,0.8544921875,14.404296875,-40.58837890625
37200.400810583,-1.17431640625,-0.2154541015625,0.323486328125,0.8544921875,16.2353515625,-40.58837890625
37200.400857041,-1.17431640625,-0.2154541015625,0.323486328125,0.8544921875,16.2353515625,-39.48974609375
37200.400891125,-1.17138671875,-0.2154541015625,0.323486328125,0.8544921875,16.2353515625,-39.48974609375
37200.428776375,-1.17138671875,-0.2039794921875,0.323486328125,0.8544921875,16.2353515625,-39.48974609375
37200.428884875,-1.17138671875,-0.2039794921875,0.323486328125,0.8544921875,13.18359375,-39.48974609375
37200.429707041,-1.17138671875,-0.2039794921875,0.323486328125,0.8544921875,13.18359375,-37.109375
37200.449396916,-1.110107421875,-0.2039794921875,0.323486328125,0.8544921875,13.18359375,-37.109375
37200.449444625,-1.110107421875,-0.147216796875,0.323486328125,0.8544921875,13.18359375,-37.109375
37200.449484958,-1.110107421875,-0.147216796875,0.3465576171875,0.8544921875,13.18359375,-37.109375
37200.459134958,-1.110107421875,-0.147216796875,0.3465576171875,0.8544921875,13.18359375,-33.935546875
37200.474220708,-1.071044921875,-0.147216796875,0.3465576171875,0.8544921875,13.18359375,-33.935546875
37200.474335958,-1.071044921875,-0.133544921875,0.3465576171875,0.8544921875,13.18359375,-33.935546875
37200.474399125,-1.071044921875,-0.133544921875,0.332275390625,0.8544921875,13.18359375,-33.935546875
37200.489155333,-1.071044921875,-0.133544921875,0.332275390625,0.8544921875,8.48388671875,-33.935546875
37200.489247125,-1.071044921875,-0.133544921875,0.332275390625,0.8544921875,8.48388671875,-25.69580078125
37200.548996541,-1.08544921875,-0.133544921875,0.332275390625,0.8544921875,8.48388671875,-25.69580078125
37200.549137375,-1.08544921875,-0.0938720703125,0.332275390625,0.8544921875,8.48388671875,-25.69580078125
37200.54922225,-1.08544921875,-0.0938720703125,0.3248291015625,0.8544921875,8.48388671875,-25.69580078125
37200.564148708,-1.08544921875,-0.0938720703125,0.3248291015625,0.8544921875,5.31005859375,-25.69580078125
37200.564250333,-1.08544921875,-0.0938720703125,0.3248291015625,0.8544921875,5.31005859375,-19.83642578125
37200.593812125,-1.0892333984375,-0.0938720703125,0.3248291015625,0.8544921875,5.31005859375,-19.83642578125
37200.5954065,-1.0892333984375,-0.0936279296875,0.3248291015625,0.8544921875,5.31005859375,-19.83642578125
37200.595534083,-1.0892333984375,-0.0936279296875,0.29248046875,0.8544921875,5.31005859375,-19.83642578125
37200.595609375,-1.0892333984375,-0.0936279296875,0.29248046875,17.578125,5.31005859375,-19.83642578125
37200.616261291,-1.0906982421875,-0.0936279296875,0.29248046875,17.578125,5.31005859375,-19.83642578125
37200.616313291,-1.0906982421875,-0.0938720703125,0.29248046875,17.578125,5.31005859375,-19.83642578125
37200.616371166,-1.0906982421875,-0.0938720703125,0.3118896484375,17.578125,5.31005859375,-19.83642578125
37200.638190916,-1.0906982421875,-0.0938720703125,0.3118896484375,17.578125,1.52587890625,-19.83642578125
37200.639862416,-1.0906982421875,-0.0938720703125,0.3118896484375,17.578125,1.52587890625,-0.6103515625
37200.639989833,-1.0849609375,-0.0938720703125,0.3118896484375,17.578125,1.52587890625,-0.6103515625
37200.640035166,-1.0849609375,-0.040771484375,0.3118896484375,17.578125,1.52587890625,-0.6103515625
37200.654270375,-1.0849609375,-0.040771484375,0.3118896484375,17.578125,-0.54931640625,-0.6103515625
37200.654396541,-1.0849609375,-0.040771484375,0.3118896484375,17.578125,-0.54931640625,5.18798828125
NEW_REP,,,,,,
37200.683262458,-1.0643310546875,-0.040771484375,0.3118896484375,17.578125,-0.54931640625,5.18798828125
37200.69911925,-1.0643310546875,-0.06103515625,0.3118896484375,17.578125,-0.54931640625,5.18798828125
37200.699286333,-1.0643310546875,-0.06103515625,0.3194580078125,17.578125,-0.54931640625,5.18798828125
37200.699368625,-1.0643310546875,-0.06103515625,0.3194580078125,12.87841796875,-0.54931640625,5.18798828125
37200.716164458,-1.0679931640625,-0.06103515625,0.3194580078125,12.87841796875,-0.54931640625,5.18798828125
37200.716214208,-1.0679931640625,-0.11328125,0.3194580078125,12.87841796875,-0.54931640625,5.18798828125
37200.716256666,-1.0679931640625,-0.11328125,0.333740234375,12.87841796875,-0.54931640625,5.18798828125
37200.732862,-1.0679931640625,-0.11328125,0.333740234375,12.87841796875,-0.54931640625,13.671875
37200.758470083,-1.1507568359375,-0.11328125,0.333740234375,12.87841796875,-0.54931640625,13.671875
37200.76595425,-1.1507568359375,-0.146484375,0.333740234375,12.87841796875,-0.54931640625,13.671875
37200.766000583,-1.1507568359375,-0.146484375,0.3572998046875,12.87841796875,-0.54931640625,13.671875
37200.766043125,-1.1507568359375,-0.146484375,0.3572998046875,2.9296875,-0.54931640625,13.671875
37200.774216416,-1.2210693359375,-0.146484375,0.3572998046875,2.9296875,-0.54931640625,13.671875
37200.774313666,-1.2210693359375,-0.158203125,0.3572998046875,2.9296875,-0.54931640625,13.671875
37200.789214583,-1.2210693359375,-0.158203125,0.4095458984375,2.9296875,-0.54931640625,13.671875
37200.789328,-1.2210693359375,-0.158203125,0.4095458984375,2.9296875,-0.9765625,13.671875
37200.78939875,-1.2210693359375,-0.158203125,0.4095458984375,2.9296875,-0.9765625,27.03857421875
37200.848861791,-1.2723388671875,-0.158203125,0.4095458984375,2.9296875,-0.9765625,27.03857421875
37200.850231333,-1.2723388671875,-0.2008056640625,0.4095458984375,2.9296875,-0.9765625,27.03857421875
37200.85033725,-1.2723388671875,-0.2008056640625,0.4554443359375,2.9296875,-0.9765625,27.03857421875
37200.864415333,-1.2723388671875,-0.2008056640625,0.4554443359375,2.9296875,-0.91552734375,27.03857421875
37200.864570458,-1.2723388671875,-0.2008056640625,0.4554443359375,2.9296875,-0.91552734375,35.0341796875
37200.894116333,-1.2845458984375,-0.2008056640625,0.4554443359375,2.9296875,-0.91552734375,35.0341796875
37200.894292416,-1.2845458984375,-0.235107421875,0.4554443359375,2.9296875,-0.91552734375,35.0341796875
37200.895019083,-1.2845458984375,-0.235107421875,0.46630859375,2.9296875,-0.91552734375,35.0341796875
37200.895189958,-1.2845458984375,-0.235107421875,0.46630859375,-20.01953125,-0.91552734375,35.0341796875
37200.924183291,-1.2508544921875,-0.235107421875,0.46630859375,-20.01953125,-0.91552734375,35.0341796875
37200.924345041,-1.2508544921875,-0.1507568359375,0.46630859375,-20.01953125,-0.91552734375,35.0341796875
37200.925050416,-1.2508544921875,-0.1507568359375,0.510986328125,-20.01953125,-0.91552734375,35.0341796875
37200.925185791,-1.2508544921875,-0.1507568359375,0.510986328125,0.3662109375,-0.91552734375,35.0341796875
37200.939331625,-1.22265625,-0.1507568359375,0.510986328125,0.3662109375,-0.91552734375,35.0341796875
37200.939511125,-1.22265625,-0.2139892578125,0.510986328125,0.3662109375,-0.91552734375,35.0341796875
37200.939606875,-1.22265625,-0.2139892578125,0.4793701171875,0.3662109375,-0.91552734375,35.0341796875
37200.954384166,-1.22265625,-0.2139892578125,0.4793701171875,0.3662109375,-5.7373046875,35.0341796875
37200.95454425,-1.22265625,-0.2139892578125,0.4793701171875,0.3662109375,-5.7373046875,51.26953125
37200.969290125,-1.204833984375,-0.2139892578125,0.4793701171875,0.3662109375,-5.7373046875,51.26953125
37200.969471791,-1.204833984375,-0.29638671875,0.4793701171875,0.3662109375,-5.7373046875,51.26953125
37200.969566625,-1.204833984375,-0.29638671875,0.37939453125,0.3662109375,-5.7373046875,51.26953125
37200.998274625,-1.204833984375,-0.29638671875,0.37939453125,0.3662109375,-5.0048828125,51.26953125
37201.01451825,-1.204833984375,-0.29638671875,0.37939453125,0.3662109375,-5.0048828125,50.59814453125
37201.014727125,-1.216552734375,-0.29638671875,0.37939453125,0.3662109375,-5.0048828125,50.59814453125
37201.014835333,-1.216552734375,-0.2767333984375,0.37939453125,0.3662109375,-5.0048828125,50.59814453125
37201.015192458,-1.216552734375,-0.2767333984375,0.3699951171875,0.3662109375,-5.0048828125,50.59814453125
37201.065722083,-1.158935546875,-0.2767333984375,0.3699951171875,0.3662109375,-5.0048828125,50.59814453125
37201.065934375,-1.158935546875,-0.142822265625,0.3699951171875,0.3662109375,-5.0048828125,50.59814453125
37201.06602025,-1.158935546875,-0.142822265625,0.39453125,0.3662109375,-5.0048828125,50.59814453125
37201.066121583,-1.158935546875,-0.142822265625,0.39453125,-0.9765625,-5.0048828125,50.59814453125
37201.083755791,-1.0787353515625,-0.142822265625,0.39453125,-0.9765625,-5.0048828125,50.59814453125
37201.083806625,-1.0787353515625,-0.162353515625,0.39453125,-0.9765625,-5.0048828125,50.59814453125
37201.083847083,-1.0787353515625,-0.162353515625,0.298828125,-0.9765625,-5.0048828125,50.59814453125
37201.089223875,-1.0787353515625,-0.162353515625,0.298828125,-0.9765625,5.55419921875,50.59814453125
37201.089320208,-1.0787353515625,-0.162353515625,0.298828125,-0.9765625,5.55419921875,38.63525390625
37201.149454291,-0.9051513671875,-0.162353515625,0.298828125,-0.9765625,5.55419921875,38.63525390625
37201.149625625,-0.9051513671875,-0.2840576171875,0.298828125,-0.9765625,5.55419921875,38.63525390625
37201.15055725,-0.9051513671875,-0.2840576171875,0.3763427734375,-0.9765625,5.55419921875,38.63525390625
37201.16417475,-0.9051513671875,-0.2840576171875,0.3763427734375,-0.9765625,8.9111328125,38.63525390625
37201.164394833,-0.9051513671875,-0.2840576171875,0.3763427734375,-0.9765625,8.9111328125,14.34326171875
37201.194204375,-0.706298828125,-0.2840576171875,0.3763427734375,-0.9765625,8.9111328125,14.34326171875
37201.200805625,-0.706298828125,-0.169189453125,0.3763427734375,-0.9765625,8.9111328125,14.34326171875
37201.201050333,-0.706298828125,-0.169189453125,0.2247314453125,-0.9765625,8.9111328125,14.34326171875
37201.2011245,-0.706298828125,-0.169189453125,0.2247314453125,185.1806640625,8.9111328125,14.34326171875
37201.209165916,-0.7275390625,-0.169189453125,0.2247314453125,185.1806640625,8.9111328125,14.34326171875
37201.224537416,-0.7275390625,-0.3861083984375,0.2247314453125,185.1806640625,8.9111328125,14.34326171875
37201.224752666,-0.7275390625,-0.3861083984375,0.15673828125,185.1806640625,8.9111328125,14.34326171875
37201.224844583,-0.7275390625,-0.3861083984375,0.15673828125,185.1806640625,1.220703125,14.34326171875
37201.225270416,-0.7275390625,-0.3861083984375,0.15673828125,185.1806640625,1.220703125,-13.97705078125
37201.254217291,-0.769775390625,-0.3861083984375,0.15673828125,185.1806640625,1.220703125,-13.97705078125
37201.254395208,-0.769775390625,-0.443115234375,0.15673828125,185.1806640625,1.220703125,-13.97705078125
37201.254797791,-0.769775390625,-0.443115234375,0.12939453125,185.1806640625,1.220703125,-13.97705078125
37201.2693615,-0.769775390625,-0.443115234375,0.12939453125,185.1806640625,-4.2724609375,-13.97705078125
37201.284037041,-0.769775390625,-0.443115234375,0.12939453125,185.1806640625,-4.2724609375,-20.3857421875
37201.301031208,-0.8072509765625,-0.443115234375,0.12939453125,185.1806640625,-4.2724609375,-20.3857421875
37201.301095875,-0.8072509765625,-0.2236328125,0.12939453125,185.1806640625,-4.2724609375,-20.3857421875
37201.301155583,-0.8072509765625,-0.2236328125,0.2645263671875,185.1806640625,-4.2724609375,-20.3857421875
37201.301213958,-0.8072509765625,-0.2236328125,0.2645263671875,-16.9677734375,-4.2724609375,-20.3857421875
37201.317320375,-0.9638671875,-0.2236328125,0.2645263671875,-16.9677734375,-4.2724609375,-20.3857421875
37201.334003083,-0.9638671875,-0.271240234375,0.2645263671875,-16.9677734375,-4.2724609375,-20.3857421875
37201.334078416,-0.9638671875,-0.271240234375,0.0450439453125,-16.9677734375,-4.2724609375,-20.3857421875
37201.373345833,-0.9638671875,-0.271240234375,0.0450439453125,-16.9677734375,-13.0615234375,-20.3857421875
37201.374972708,-0.9638671875,-0.271240234375,0.0450439453125,-16.9677734375,-13.0615234375,-30.029296875
37201.375174666,-0.7845458984375,-0.271240234375,0.0450439453125,-16.9677734375,-13.0615234375,-30.029296875
37201.375284666,-0.7845458984375,-0.29443359375,0.0450439453125,-16.9677734375,-13.0615234375,-30.029296875
37201.400959708,-0.7845458984375,-0.29443359375,0.0450439453125,-16.9677734375,-0.79345703125,-30.029296875
37201.401027958,-0.7845458984375,-0.29443359375,0.0450439453125,-16.9677734375,-0.79345703125,-34.5458984375
37201.479262875,-0.6514892578125,-0.29443359375,0.0450439453125,-16.9677734375,-0.79345703125,-34.5458984375
37201.480232958,-0.6514892578125,-0.3350830078125,0.0450439453125,-16.9677734375,-0.79345703125,-34.5458984375
37201.480575666,-0.6514892578125,-0.3350830078125,-0.0069580078125,-16.9677734375,-0.79345703125,-34.5458984375
37201.480706708,-0.6514892578125,-0.3350830078125,-0.0069580078125,-16.9677734375,-11.16943359375,-34.5458984375
37201.50195425,-0.7755126953125,-0.3350830078125,-0.0069580078125,-16.9677734375,-11.16943359375,-34.5458984375
37201.502041916,-0.7755126953125,-0.41845703125,-0.0069580078125,-16.9677734375,-11.16943359375,-34.5458984375
37201.502118833,-0.7755126953125,-0.41845703125,-0.21435546875,-16.9677734375,-11.16943359375,-34.5458984375
37201.5096645,-0.7755126953125,-0.41845703125,-0.21435546875,-16.9677734375,3.90625,-34.5458984375
37201.509928833,-0.7755126953125,-0.41845703125,-0.21435546875,-16.9677734375,3.90625,-68.4814453125
37201.538762208,-0.552490234375,-0.41845703125,-0.21435546875,-16.9677734375,3.90625,-68.4814453125
37201.544567083,-0.552490234375,-0.0938720703125,-0.21435546875,-16.9677734375,3.90625,-68.4814453125
37201.554481208,-0.552490234375,-0.0938720703125,0.0323486328125,-16.9677734375,3.90625,-68.4814453125
37201.554739458,-0.552490234375,-0.0938720703125,0.0323486328125,-36.0107421875,3.90625,-68.4814453125
37201.567955375,-0.62841796875,-0.0938720703125,0.0323486328125,-36.0107421875,3.90625,-68.4814453125
37201.568158458,-0.62841796875,-0.059814453125,0.0323486328125,-36.0107421875,3.90625,-68.4814453125
37201.569164625,-0.62841796875,-0.059814453125,0.0323486328125,-8.1787109375,3.90625,-68.4814453125
37201.569387166,-0.62841796875,-0.059814453125,0.0323486328125,-8.1787109375,17.27294921875,-68.4814453125
37201.569499708,-0.62841796875,-0.059814453125,0.0323486328125,-8.1787109375,17.27294921875,-77.5146484375
37201.599268458,-0.782958984375,-0.059814453125,0.0323486328125,-8.1787109375,17.27294921875,-77.5146484375
37201.599469791,-0.782958984375,-0.12939453125,0.0323486328125,-8.1787109375,17.27294921875,-77.5146484375
37201.600165416,-0.782958984375,-0.12939453125,-0.1617431640625,-8.1787109375,17.27294921875,-77.5146484375
37201.600344375,-0.782958984375,-0.12939453125,-0.1617431640625,-19.22607421875,17.27294921875,-77.5146484375
37201.644139833,-0.78564453125,-0.12939453125,-0.1617431640625,-19.22607421875,17.27294921875,-77.5146484375
37201.644321708,-0.78564453125,0.0501708984375,-0.1617431640625,-19.22607421875,17.27294921875,-77.5146484375
37201.645136208,-0.78564453125,0.0501708984375,-0.0015869140625,-19.22607421875,17.27294921875,-77.5146484375
37201.645320375,-0.78564453125,0.0501708984375,-0.0015869140625,-44.37255859375,17.27294921875,-77.5146484375
37201.674176541,-0.7099609375,0.0501708984375,-0.0015869140625,-44.37255859375,17.27294921875,-77.5146484375
37201.674334625,-0.7099609375,0.0804443359375,-0.0015869140625,-44.37255859375,17.27294921875,-77.5146484375
37201.689627416,-0.7099609375,0.0804443359375,0.134033203125,-44.37255859375,17.27294921875,-77.5146484375
37201.689774708,-0.7099609375,0.0804443359375,0.134033203125,-44.37255859375,11.1083984375,-77.5146484375
37201.690994208,-0.8629150390625,0.0804443359375,0.134033203125,-44.37255859375,11.1083984375,-77.5146484375
37201.691216125,-0.8629150390625,-0.1522216796875,0.134033203125,-44.37255859375,11.1083984375,-77.5146484375
37201.749569041,-0.8629150390625,-0.1522216796875,0.134033203125,45.22705078125,11.1083984375,-77.5146484375
37201.749958125,-0.8629150390625,-0.1522216796875,0.134033203125,45.22705078125,4.57763671875,-77.5146484375
37201.750241458,-0.8629150390625,-0.1522216796875,0.134033203125,45.22705078125,4.57763671875,36.2548828125
37201.778886833,-0.8629150390625,-0.2471923828125,0.134033203125,45.22705078125,4.57763671875,36.2548828125
37201.785009416,-0.8629150390625,-0.2471923828125,0.092041015625,45.22705078125,4.57763671875,36.2548828125
37201.8390755,-0.8629150390625,-0.2471923828125,0.092041015625,16.41845703125,4.57763671875,36.2548828125
37201.840215083,-0.8629150390625,-0.2471923828125,0.092041015625,16.41845703125,4.57763671875,44.677734375
37201.841019625,-0.7777099609375,-0.2471923828125,0.092041015625,16.41845703125,4.57763671875,44.677734375
37201.841187416,-0.7777099609375,-0.221435546875,0.092041015625,16.41845703125,4.57763671875,44.677734375
37201.867452666,-0.7777099609375,-0.221435546875,0.092041015625,16.41845703125,-13.24462890625,44.677734375
37201.867543083,-0.7777099609375,-0.221435546875,0.092041015625,16.41845703125,-13.24462890625,54.99267578125
37201.8993105,-0.6318359375,-0.221435546875,0.092041015625,16.41845703125,-13.24462890625,54.99267578125
37201.899507666,-0.6318359375,-0.2137451171875,0.092041015625,16.41845703125,-13.24462890625,54.99267578125
37201.900140291,-0.6318359375,-0.2137451171875,0.1112060546875,16.41845703125,-13.24462890625,54.99267578125
37201.900329458,-0.6318359375,-0.2137451171875,0.1112060546875,-19.71435546875,-13.24462890625,54.99267578125
37201.929826541,-0.562744140625,-0.2137451171875,0.1112060546875,-19.71435546875,-13.24462890625,54.99267578125
37201.931673791,-0.562744140625,-0.1798095703125,0.1112060546875,-19.71435546875,-13.24462890625,54.99267578125
37201.931894958,-0.562744140625,-0.1798095703125,0.1409912109375,-19.71435546875,-13.24462890625,54.99267578125
37201.932020125,-0.562744140625,-0.1798095703125,0.1409912109375,-19.71435546875,-27.77099609375,54.99267578125
37201.959928,-0.77978515625,-0.1798095703125,0.1409912109375,-19.71435546875,-27.77099609375,54.99267578125
37201.96014025,-0.77978515625,-0.26904296875,0.1409912109375,-19.71435546875,-27.77099609375,54.99267578125
37201.960218541,-0.77978515625,-0.26904296875,0.029296875,-19.71435546875,-27.77099609375,54.99267578125
37201.960395416,-0.77978515625,-0.26904296875,0.029296875,-9.70458984375,-27.77099609375,54.99267578125
37201.974556833,-0.6739501953125,-0.26904296875,0.029296875,-9.70458984375,-27.77099609375,54.99267578125
37201.974767375,-0.6739501953125,-0.3814697265625,0.029296875,-9.70458984375,-27.77099609375,54.99267578125
37201.97488,-0.6739501953125,-0.3814697265625,0.1199951171875,-9.70458984375,-27.77099609375,54.99267578125
37201.989322375,-0.6739501953125,-0.3814697265625,0.1199951171875,-9.70458984375,-25.5126953125,54.99267578125
37202.049829625,-0.6739501953125,-0.3814697265625,0.1199951171875,-9.70458984375,-25.5126953125,48.88916015625
37202.050129916,-0.839599609375,-0.3814697265625,0.1199951171875,-9.70458984375,-25.5126953125,48.88916015625
37202.05030675,-0.839599609375,-0.327392578125,0.1199951171875,-9.70458984375,-25.5126953125,48.88916015625
37202.050549375,-0.839599609375,-0.327392578125,-0.0328369140625,-9.70458984375,-25.5126953125,48.88916015625
37202.068135375,-0.839599609375,-0.327392578125,-0.0328369140625,-9.70458984375,-27.52685546875,48.88916015625
37202.085533666,-0.839599609375,-0.327392578125,-0.0328369140625,-9.70458984375,-27.52685546875,35.58349609375
37202.085635541,-0.8287353515625,-0.327392578125,-0.0328369140625,-9.70458984375,-27.52685546875,35.58349609375
37202.0857235,-0.8287353515625,-0.1942138671875,-0.0328369140625,-9.70458984375,-27.52685546875,35.58349609375
37202.085821125,-0.8287353515625,-0.1942138671875,0.0389404296875,-9.70458984375,-27.52685546875,35.58349609375
37202.109587708,-0.8287353515625,-0.1942138671875,0.0389404296875,-9.70458984375,-12.75634765625,35.58349609375
37202.1384925,-0.8287353515625,-0.1942138671875,0.0389404296875,-9.70458984375,-12.75634765625,36.31591796875
37202.139539083,-0.9755859375,-0.1942138671875,0.0389404296875,-9.70458984375,-12.75634765625,36.31591796875
37202.13981025,-0.9755859375,-0.4222412109375,0.0389404296875,-9.70458984375,-12.75634765625,36.31591796875
37202.144561833,-0.9755859375,-0.4222412109375,0.0699462890625,-9.70458984375,-12.75634765625,36.31591796875
37202.154256,-0.9755859375,-0.4222412109375,0.0699462890625,-9.70458984375,-12.75634765625,38.4521484375
37202.169936166,-0.9884033203125,-0.4222412109375,0.0699462890625,-9.70458984375,-12.75634765625,38.4521484375
37202.175563708,-0.9884033203125,-0.48388671875,0.0699462890625,-9.70458984375,-12.75634765625,38.4521484375
37202.175659291,-0.9884033203125,-0.48388671875,0.0478515625,-9.70458984375,-12.75634765625,38.4521484375
37202.184779875,-0.9884033203125,-0.48388671875,0.0478515625,-9.70458984375,11.71875,38.4521484375
37202.185033666,-0.9884033203125,-0.48388671875,0.0478515625,-9.70458984375,11.71875,15.80810546875
37202.213508916,-1.0870361328125,-0.48388671875,0.0478515625,-9.70458984375,11.71875,15.80810546875
37202.2151655,-1.0870361328125,-0.5037841796875,0.0478515625,-9.70458984375,11.71875,15.80810546875
37202.215396625,-1.0870361328125,-0.5037841796875,0.2581787109375,-9.70458984375,11.71875,15.80810546875
37202.215522041,-1.0870361328125,-0.5037841796875,0.2581787109375,-30.45654296875,11.71875,15.80810546875
37202.244072458,-1.0299072265625,-0.5037841796875,0.2581787109375,-30.45654296875,11.71875,15.80810546875
37202.251158583,-1.0299072265625,-0.505126953125,0.2581787109375,-30.45654296875,11.71875,15.80810546875
37202.251241291,-1.0299072265625,-0.505126953125,0.3157958984375,-30.45654296875,11.71875,15.80810546875
37202.251315708,-1.0299072265625,-0.505126953125,0.3157958984375,-36.865234375,11.71875,15.80810546875
37202.259437125,-1.0833740234375,-0.505126953125,0.3157958984375,-36.865234375,11.71875,15.80810546875
37202.2596565,-1.0833740234375,-0.496826171875,0.3157958984375,-36.865234375,11.71875,15.80810546875
37202.259766166,-1.0833740234375,-0.496826171875,0.1241455078125,-36.865234375,11.71875,15.80810546875
37202.274492916,-1.0833740234375,-0.496826171875,0.1241455078125,-36.865234375,11.04736328125,15.80810546875
37202.274663041,-1.0833740234375,-0.496826171875,0.1241455078125,-36.865234375,11.04736328125,-14.83154296875
37202.350178625,-1.0633544921875,-0.496826171875,0.1241455078125,-36.865234375,11.04736328125,-14.83154296875
37202.350548625,-1.0633544921875,-0.4149169921875,0.1241455078125,-36.865234375,11.04736328125,-14.83154296875
37202.350667041,-1.0633544921875,-0.4149169921875,0.195068359375,-36.865234375,11.04736328125,-14.83154296875
37202.364780375,-1.0633544921875,-0.4149169921875,0.195068359375,-36.865234375,11.71875,-14.83154296875
37202.365004208,-1.0633544921875,-0.4149169921875,0.195068359375,-36.865234375,11.71875,-24.10888671875
37202.384421416,-1.078125,-0.4149169921875,0.195068359375,-36.865234375,11.71875,-24.10888671875
37202.384499041,-1.078125,-0.3336181640625,0.195068359375,-36.865234375,11.71875,-24.10888671875
37202.3845685,-1.078125,-0.3336181640625,0.2197265625,-36.865234375,11.71875,-24.10888671875
37202.423474375,-1.078125,-0.3336181640625,0.2197265625,-36.865234375,14.0380859375,-24.10888671875
37202.439723708,-1.078125,-0.3336181640625,0.2197265625,-36.865234375,14.0380859375,-27.587890625
37202.439964375,-1.0692138671875,-0.3336181640625,0.2197265625,-36.865234375,14.0380859375,-27.587890625
37202.440039,-1.0692138671875,-0.3336181640625,0.2296142578125,-36.865234375,14.0380859375,-27.587890625
37202.440252708,-1.0692138671875,-0.3336181640625,0.2296142578125,-36.865234375,10.43701171875,-27.587890625
37202.468397,-1.122314453125,-0.3336181640625,0.2296142578125,-36.865234375,10.43701171875,-27.587890625
37202.484894875,-1.122314453125,-0.3448486328125,0.2296142578125,-36.865234375,10.43701171875,-27.587890625
37202.485042,-1.122314453125,-0.3448486328125,0.2081298828125,-36.865234375,10.43701171875,-27.587890625
37202.485127041,-1.122314453125,-0.3448486328125,0.2081298828125,-46.38671875,10.43701171875,-27.587890625
37202.500703958,-1.10009765625,-0.3448486328125,0.2081298828125,-46.38671875,10.43701171875,-27.587890625
37202.500789583,-1.10009765625,-0.3594970703125,0.2081298828125,-46.38671875,10.43701171875,-27.587890625
37202.518006708,-1.10009765625,-0.3594970703125,0.1925048828125,-46.38671875,10.43701171875,-27.587890625
37202.518092208,-1.10009765625,-0.3594970703125,0.1925048828125,-46.38671875,10.43701171875,-38.51318359375
37202.534360583,-1.1966552734375,-0.3594970703125,0.1925048828125,-46.38671875,10.43701171875,-38.51318359375
37202.534455375,-1.1966552734375,-0.3050537109375,0.1925048828125,-46.38671875,10.43701171875,-38.51318359375
37202.53452875,-1.1966552734375,-0.3050537109375,0.2452392578125,-46.38671875,10.43701171875,-38.51318359375
37202.558570333,-1.1966552734375,-0.3050537109375,0.2452392578125,-46.38671875,17.02880859375,-38.51318359375
37202.574592916,-1.1966552734375,-0.3050537109375,0.2452392578125,-46.38671875,17.02880859375,-41.93115234375
37202.574801916,-1.1806640625,-0.3050537109375,0.2452392578125,-46.38671875,17.02880859375,-41.93115234375
37202.574921041,-1.1806640625,-0.3277587890625,0.2452392578125,-46.38671875,17.02880859375,-41.93115234375
37202.57525675,-1.1806640625,-0.3277587890625,0.2645263671875,-46.38671875,17.02880859375,-41.93115234375
37202.649017583,-1.156982421875,-0.3277587890625,0.2645263671875,-46.38671875,17.02880859375,-41.93115234375
37202.650629083,-1.156982421875,-0.298583984375,0.2645263671875,-46.38671875,17.02880859375,-41.93115234375
37202.650985666,-1.156982421875,-0.298583984375,0.2686767578125,-46.38671875,17.02880859375,-41.93115234375
37202.651218375,-1.156982421875,-0.298583984375,0.2686767578125,-19.4091796875,17.02880859375,-41.93115234375
37202.668031625,-1.1488037109375,-0.298583984375,0.2686767578125,-19.4091796875,17.02880859375,-41.93115234375
37202.668112958,-1.1488037109375,-0.2064208984375,0.2686767578125,-19.4091796875,17.02880859375,-41.93115234375
37202.684672958,-1.1488037109375,-0.2064208984375,0.30908203125,-19.4091796875,17.02880859375,-41.93115234375
37202.68475675,-1.1488037109375,-0.2064208984375,0.30908203125,-19.4091796875,8.97216796875,-41.93115234375
37202.684834125,-1.1488037109375,-0.2064208984375,0.30908203125,-19.4091796875,8.97216796875,-30.45654296875
37202.724013875,-1.0809326171875,-0.2064208984375,0.30908203125,-19.4091796875,8.97216796875,-30.45654296875
37202.72415075,-1.0809326171875,-0.12646484375,0.30908203125,-19.4091796875,8.97216796875,-30.45654296875
37202.724851125,-1.0809326171875,-0.12646484375,0.2991943359375,-19.4091796875,8.97216796875,-30.45654296875
37202.72496725,-1.0809326171875,-0.12646484375,0.2991943359375,-4.0283203125,8.97216796875,-30.45654296875
37202.739597583,-1.0433349609375,-0.12646484375,0.2991943359375,-4.0283203125,8.97216796875,-30.45654296875
37202.739788958,-1.0433349609375,-0.0855712890625,0.2991943359375,-4.0283203125,8.97216796875,-30.45654296875
37202.739862583,-1.0433349609375,-0.0855712890625,0.2919921875,-4.0283203125,8.97216796875,-30.45654296875
37202.754277875,-1.0433349609375,-0.0855712890625,0.2919921875,-4.0283203125,7.32421875,-30.45654296875
37202.754424583,-1.0433349609375,-0.0855712890625,0.2919921875,-4.0283203125,7.32421875,-6.53076171875
37202.784400791,-1.0146484375,-0.0855712890625,0.2919921875,-4.0283203125,7.32421875,-6.53076171875
37202.784549875,-1.0146484375,-0.070068359375,0.2919921875,-4.0283203125,7.32421875,-6.53076171875
37202.785311375,-1.0146484375,-0.070068359375,0.3231201171875,-4.0283203125,7.32421875,-6.53076171875
37202.785431916,-1.0146484375,-0.070068359375,0.3231201171875,12.8173828125,7.32421875,-6.53076171875
NEW_REP,,,,,,
37202.799164625,-1.01318359375,-0.070068359375,0.3231201171875,12.8173828125,7.32421875,-6.53076171875
37202.799354625,-1.01318359375,-0.1326904296875,0.3231201171875,12.8173828125,7.32421875,-6.53076171875
37202.7994515,-1.01318359375,-0.1326904296875,0.2742919921875,12.8173828125,7.32421875,-6.53076171875
37202.82888075,-1.01318359375,-0.1326904296875,0.2742919921875,12.8173828125,2.01416015625,-6.53076171875
37202.829051125,-1.01318359375,-0.1326904296875,0.2742919921875,12.8173828125,2.01416015625,3.7841796875
37202.850820416,-1.027099609375,-0.1326904296875,0.2742919921875,12.8173828125,2.01416015625,3.7841796875
37202.85090125,-1.027099609375,-0.1864013671875,0.2742919921875,12.8173828125,2.01416015625,3.7841796875
37202.850971833,-1.027099609375,-0.1864013671875,0.2928466796875,12.8173828125,2.01416015625,3.7841796875
37202.874368958,-1.06005859375,-0.1864013671875,0.2928466796875,12.8173828125,2.01416015625,3.7841796875
37202.874519208,-1.06005859375,-0.17138671875,0.2928466796875,12.8173828125,2.01416015625,3.7841796875
37202.875132,-1.06005859375,-0.17138671875,0.3306884765625,12.8173828125,2.01416015625,3.7841796875
37202.875276708,-1.06005859375,-0.17138671875,0.3306884765625,-11.65771484375,2.01416015625,3.7841796875
37202.891161,-1.111328125,-0.17138671875,0.3306884765625,-11.65771484375,2.01416015625,3.7841796875
37202.891327875,-1.111328125,-0.1864013671875,0.3306884765625,-11.65771484375,2.01416015625,3.7841796875
37202.950487083,-1.111328125,-0.1864013671875,0.3387451171875,-11.65771484375,2.01416015625,3.7841796875
37202.950891166,-1.111328125,-0.1864013671875,0.3387451171875,-11.65771484375,-7.87353515625,3.7841796875
37202.951004,-1.111328125,-0.1864013671875,0.3387451171875,-11.65771484375,-7.87353515625,13.5498046875
37202.951152416,-1.14892578125,-0.1864013671875,0.3387451171875,-11.65771484375,-7.87353515625,13.5498046875
37202.968358083,-1.14892578125,-0.1864013671875,0.3397216796875,-11.65771484375,-7.87353515625,13.5498046875
37202.968456416,-1.14892578125,-0.1864013671875,0.3397216796875,-3.5400390625,-7.87353515625,13.5498046875
37202.968545458,-1.14892578125,-0.1864013671875,0.3397216796875,-3.5400390625,-9.33837890625,13.5498046875
37202.98530975,-1.2413330078125,-0.1864013671875,0.3397216796875,-3.5400390625,-9.33837890625,13.5498046875
37202.9854105,-1.2413330078125,-0.231689453125,0.3397216796875,-3.5400390625,-9.33837890625,13.5498046875
37202.985497791,-1.2413330078125,-0.231689453125,0.4085693359375,-3.5400390625,-9.33837890625,13.5498046875
37203.008930541,-1.2413330078125,-0.231689453125,0.4085693359375,-3.5400390625,-7.9345703125,13.5498046875
37203.055541166,-1.2413330078125,-0.231689453125,0.4085693359375,-3.5400390625,-7.9345703125,29.47998046875
37203.055926,-1.2557373046875,-0.231689453125,0.4085693359375,-3.5400390625,-7.9345703125,29.47998046875
37203.056046291,-1.2557373046875,-0.248291015625,0.4085693359375,-3.5400390625,-7.9345703125,29.47998046875
37203.056474833,-1.2557373046875,-0.248291015625,0.4085693359375,-3.5400390625,-6.4697265625,29.47998046875
37203.0846915,-1.2677001953125,-0.248291015625,0.4085693359375,-3.5400390625,-6.4697265625,29.47998046875
37203.084773291,-1.2677001953125,-0.3138427734375,0.4085693359375,-3.5400390625,-6.4697265625,29.47998046875
37203.08484725,-1.2677001953125,-0.3138427734375,0.432373046875,-3.5400390625,-6.4697265625,29.47998046875
37203.084917416,-1.2677001953125,-0.3138427734375,0.432373046875,-3.5400390625,-7.9345703125,29.47998046875
37203.085004125,-1.2677001953125,-0.3138427734375,0.432373046875,-3.5400390625,-7.9345703125,42.96875
37203.113545416,-1.3526611328125,-0.3138427734375,0.432373046875,-3.5400390625,-7.9345703125,42.96875
37203.115536666,-1.3526611328125,-0.2999267578125,0.432373046875,-3.5400390625,-7.9345703125,42.96875
37203.115708375,-1.3526611328125,-0.2999267578125,0.40673828125,-3.5400390625,-7.9345703125,42.96875
37203.144648166,-1.3526611328125,-0.2999267578125,0.40673828125,-17.9443359375,-7.9345703125,42.96875
37203.144899041,-1.336181640625,-0.2999267578125,0.40673828125,-17.9443359375,-7.9345703125,42.96875
37203.16756675,-1.336181640625,-0.2420654296875,0.40673828125,-17.9443359375,-7.9345703125,42.96875
37203.2805255,-1.336181640625,-0.2420654296875,0.3958740234375,-17.9443359375,-7.9345703125,42.96875
37203.281257583,-1.336181640625,-0.2420654296875,0.3958740234375,-17.9443359375,-5.2490234375,42.96875
37203.281558166,-1.336181640625,-0.2420654296875,0.3958740234375,-17.9443359375,-5.2490234375,54.26025390625
37203.281716666,-1.21435546875,-0.2420654296875,0.3958740234375,-17.9443359375,-5.2490234375,54.26025390625
37203.301531208,-1.21435546875,-0.2420654296875,0.3958740234375,2.5634765625,-5.2490234375,54.26025390625
37203.385661041,-1.21435546875,-0.2420654296875,0.3958740234375,2.5634765625,1.46484375,54.26025390625
37203.386457875,-1.21435546875,-0.2420654296875,0.3958740234375,2.5634765625,1.46484375,51.45263671875
37203.386668291,-0.7982177734375,-0.2420654296875,0.3958740234375,2.5634765625,1.46484375,51.45263671875
37203.401333041,-0.7982177734375,-0.2662353515625,0.3958740234375,2.5634765625,1.46484375,51.45263671875
37203.401648208,-0.7982177734375,-0.2662353515625,0.3958740234375,2.5634765625,6.65283203125,51.45263671875
37203.40173875,-0.7982177734375,-0.2662353515625,0.3958740234375,2.5634765625,6.65283203125,-1.220703125
37203.428443333,-0.716064453125,-0.2662353515625,0.3958740234375,2.5634765625,6.65283203125,-1.220703125
37203.434685333,-0.716064453125,-0.14990234375,0.3958740234375,2.5634765625,6.65283203125,-1.220703125
37203.43478475,-0.716064453125,-0.14990234375,0.30224609375,2.5634765625,6.65283203125,-1.220703125
37203.434893958,-0.716064453125,-0.14990234375,0.30224609375,-35.2783203125,6.65283203125,-1.220703125
37203.459502916,-0.8111572265625,-0.14990234375,0.30224609375,-35.2783203125,6.65283203125,-1.220703125
37203.474783666,-0.8111572265625,-0.2410888671875,0.30224609375,-35.2783203125,6.65283203125,-1.220703125
37203.475015333,-0.8111572265625,-0.2410888671875,0.2930908203125,-35.2783203125,6.65283203125,-1.220703125
37203.475141791,-0.8111572265625,-0.2410888671875,0.2930908203125,-35.2783203125,-23.0712890625,-1.220703125
37203.475427458,-0.77099609375,-0.2410888671875,0.2930908203125,-35.2783203125,-23.0712890625,-1.220703125
37203.489496458,-0.77099609375,-0.2410888671875,0.064453125,-35.2783203125,-23.0712890625,-1.220703125
37203.489740833,-0.77099609375,-0.2410888671875,0.064453125,29.1748046875,-23.0712890625,-1.220703125
37203.489871291,-0.77099609375,-0.2410888671875,0.064453125,29.1748046875,-22.39990234375,-1.220703125
37203.550276291,-0.7803955078125,-0.2410888671875,0.064453125,29.1748046875,-22.39990234375,-1.220703125
37203.550561833,-0.7803955078125,-0.4940185546875,0.064453125,29.1748046875,-22.39990234375,-1.220703125
37203.595095875,-0.7803955078125,-0.4940185546875,0.1419677734375,29.1748046875,-22.39990234375,-1.220703125
37203.595542333,-0.7803955078125,-0.4940185546875,0.1419677734375,29.1748046875,-28.076171875,-1.220703125
37203.595758541,-0.7803955078125,-0.4940185546875,0.1419677734375,29.1748046875,-28.076171875,-54.5654296875
37203.617607208,-0.6737060546875,-0.4940185546875,0.1419677734375,29.1748046875,-28.076171875,-54.5654296875
37203.638451833,-0.6737060546875,-0.4940185546875,0.0540771484375,29.1748046875,-28.076171875,-54.5654296875
37203.6401345,-0.6737060546875,-0.4940185546875,0.0540771484375,22.3388671875,-28.076171875,-54.5654296875
37203.640326166,-0.6737060546875,-0.4940185546875,0.0540771484375,22.3388671875,-10.43701171875,-54.5654296875
37203.640431875,-0.7503662109375,-0.4940185546875,0.0540771484375,22.3388671875,-10.43701171875,-54.5654296875
37203.654516291,-0.7503662109375,-0.4940185546875,0.126708984375,22.3388671875,-10.43701171875,-54.5654296875
37203.654702166,-0.7503662109375,-0.4940185546875,0.126708984375,84.53369140625,-10.43701171875,-54.5654296875
37203.6548095,-0.7503662109375,-0.4940185546875,0.126708984375,84.53369140625,10.498046875,-54.5654296875
37203.683414583,-0.6634521484375,-0.4940185546875,0.126708984375,84.53369140625,10.498046875,-54.5654296875
37203.68545225,-0.6634521484375,-0.1263427734375,0.126708984375,84.53369140625,10.498046875,-54.5654296875
37203.685711041,-0.6634521484375,-0.1263427734375,0.1353759765625,84.53369140625,10.498046875,-54.5654296875
37203.685845666,-0.6634521484375,-0.1263427734375,0.1353759765625,84.53369140625,15.2587890625,-54.5654296875
37203.700985375,-0.748046875,-0.1263427734375,0.1353759765625,84.53369140625,15.2587890625,-54.5654296875
37203.701065333,-0.748046875,-0.11669921875,0.1353759765625,84.53369140625,15.2587890625,-54.5654296875
37203.701136041,-0.748046875,-0.11669921875,0.0653076171875,84.53369140625,15.2587890625,-54.5654296875
37203.717818625,-0.748046875,-0.11669921875,0.0653076171875,84.53369140625,0.30517578125,-54.5654296875
37203.717902708,-0.748046875,-0.11669921875,0.0653076171875,84.53369140625,0.30517578125,-42.8466796875
37203.733936625,-0.78662109375,-0.11669921875,0.0653076171875,84.53369140625,0.30517578125,-42.8466796875
37203.73401275,-0.78662109375,0.0087890625,0.0653076171875,84.53369140625,0.30517578125,-42.8466796875
37203.789625041,-0.78662109375,0.0087890625,0.04541015625,84.53369140625,0.30517578125,-42.8466796875
37203.789889,-0.78662109375,0.0087890625,0.04541015625,84.53369140625,-3.60107421875,-42.8466796875
37203.790407041,-0.78662109375,0.0087890625,0.04541015625,84.53369140625,-3.60107421875,-34.97314453125
37203.790627916,-0.7923583984375,0.0087890625,0.04541015625,84.53369140625,-3.60107421875,-34.97314453125
37203.84988225,-0.7923583984375,0.0087890625,0.1409912109375,84.53369140625,-3.60107421875,-34.97314453125
37203.850078375,-0.7923583984375,0.0087890625,0.1409912109375,69.82421875,-3.60107421875,-34.97314453125
37203.854916916,-0.7923583984375,0.0087890625,0.1409912109375,69.82421875,1.03759765625,-34.97314453125
37203.864281458,-0.8450927734375,0.0087890625,0.1409912109375,69.82421875,1.03759765625,-34.97314453125
