Timestamp,Accel_X,Accel_Y,Accel_Z,Gyro_X,Gyro_Y,Gyro_Z
36120.430716916,-0.2923583984375,0.0,0.0,0.0,0.0,0.0
36120.473044833,-0.29638671875,0.0,0.0,0.0,0.0,0.0
36120.476565166,-0.3048095703125,0.0,0.0,0.0,0.0,0.0
36120.476690458,-0.3048095703125,0.951171875,0.0,0.0,0.0,0.0
36120.503116666,-0.3045654296875,0.951171875,0.0,0.0,0.0,0.0
36120.503211583,-0.3045654296875,0.95703125,0.0,0.0,0.0,0.0
36120.534919125,-0.2894287109375,0.95703125,0.0,0.0,0.0,0.0
36120.535107166,-0.2894287109375,0.938720703125,0.0,0.0,0.0,0.0
36120.552010666,-0.27783203125,0.938720703125,0.0,0.0,0.0,0.0
36120.552050083,-0.27783203125,0.932861328125,0.0,0.0,0.0,0.0
36120.552084916,-0.27783203125,0.932861328125,0.1273193359375,0.0,0.0,0.0
36120.569528541,-0.2781982421875,0.932861328125,0.1273193359375,0.0,0.0,0.0
36120.569570833,-0.2781982421875,0.93603515625,0.1273193359375,0.0,0.0,0.0
36120.592660083,-0.2783203125,0.93603515625,0.1273193359375,0.0,0.0,0.0
36120.5927575,-0.2783203125,0.92529296875,0.1273193359375,0.0,0.0,0.0
36120.59391525,-0.2783203125,0.92529296875,0.1492919921875,0.0,0.0,0.0
36120.594191083,-0.2783203125,0.92529296875,0.1492919921875,10.92529296875,0.0,0.0
36120.637758666,-0.2828369140625,0.92529296875,0.1492919921875,10.92529296875,0.0,0.0
36120.640077083,-0.2828369140625,0.9232177734375,0.1492919921875,10.92529296875,0.0,0.0
36120.64026125,-0.2828369140625,0.9232177734375,0.1492919921875,9.3994140625,0.0,0.0
36120.640341166,-0.2828369140625,0.9232177734375,0.1492919921875,9.3994140625,1.953125,0.0
36120.653137541,-0.2828369140625,0.9195556640625,0.1492919921875,9.3994140625,1.953125,0.0
36120.65370775,-0.2828369140625,0.9195556640625,0.158447265625,9.3994140625,1.953125,0.0
36120.668605416,-0.2828369140625,0.9195556640625,0.158447265625,9.3994140625,1.5869140625,0.0
36120.668701333,-0.2828369140625,0.9195556640625,0.158447265625,9.3994140625,1.5869140625,1.89208984375
36120.684887083,-0.28173828125,0.9195556640625,0.158447265625,9.3994140625,1.5869140625,1.89208984375
36120.684931625,-0.28173828125,0.9195556640625,0.158447265625,9.3994140625,1.5869140625,1.89208984375
36120.684964291,-0.28173828125,0.9195556640625,0.16748046875,9.3994140625,1.5869140625,1.89208984375
36120.701573125,-0.28173828125,0.9195556640625,0.16748046875,9.3994140625,0.79345703125,1.89208984375
36120.701615375,-0.28173828125,0.9195556640625,0.16748046875,9.3994140625,0.79345703125,1.8310546875
36120.727655958,-0.2734375,0.9195556640625,0.16748046875,9.3994140625,0.79345703125,1.8310546875
36120.727741041,-0.2734375,0.927001953125,0.16748046875,9.3994140625,0.79345703125,1.8310546875
36120.735313708,-0.2734375,0.927001953125,0.12548828125,9.3994140625,0.79345703125,1.8310546875
36120.735355833,-0.2734375,0.927001953125,0.12548828125,-0.732421875,0.79345703125,1.8310546875
36120.757870166,-0.2750244140625,0.927001953125,0.12548828125,-0.732421875,0.79345703125,1.8310546875
36120.757963375,-0.2750244140625,0.9371337890625,0.12548828125,-0.732421875,0.79345703125,1.8310546875
36120.757996041,-0.2750244140625,0.9371337890625,0.14794921875,-0.732421875,0.79345703125,1.8310546875
36120.77294275,-0.2750244140625,0.9371337890625,0.14794921875,-0.732421875,-0.9765625,1.8310546875
36120.773038625,-0.2750244140625,0.9371337890625,0.14794921875,-0.732421875,-0.9765625,0.732421875
36120.787356125,-0.283447265625,0.9371337890625,0.14794921875,-0.732421875,-0.9765625,0.732421875
36120.787449458,-0.283447265625,0.9296875,0.14794921875,-0.732421875,-0.9765625,0.732421875
36120.788482416,-0.283447265625,0.9296875,0.14501953125,-0.732421875,-0.9765625,0.732421875
36120.803187208,-0.283447265625,0.9296875,0.14501953125,-0.732421875,-1.220703125,0.732421875
36120.803273625,-0.283447265625,0.9296875,0.14501953125,-0.732421875,-1.220703125,0.18310546875
36120.818450458,-0.282958984375,0.9296875,0.14501953125,-0.732421875,-1.220703125,0.18310546875
36120.818490541,-0.282958984375,0.926025390625,0.14501953125,-0.732421875,-1.220703125,0.18310546875
36120.81905175,-0.282958984375,0.926025390625,0.121337890625,-0.732421875,-1.220703125,0.18310546875
36120.835073208,-0.282958984375,0.926025390625,0.121337890625,-0.732421875,-0.67138671875,0.18310546875
36120.835113416,-0.282958984375,0.926025390625,0.121337890625,-0.732421875,-0.67138671875,0.18310546875
36120.852079916,-0.24169921875,0.926025390625,0.121337890625,-0.732421875,-0.67138671875,0.18310546875
36120.852126416,-0.24169921875,0.9033203125,0.121337890625,-0.732421875,-0.67138671875,0.18310546875
36120.852181208,-0.24169921875,0.9033203125,0.087646484375,-0.732421875,-0.67138671875,0.18310546875
36120.868089208,-0.24169921875,0.9033203125,0.087646484375,-0.732421875,-0.48828125,0.18310546875
36120.868154458,-0.24169921875,0.9033203125,0.087646484375,-0.732421875,-0.48828125,-1.953125
36120.877503958,-0.197998046875,0.9033203125,0.087646484375,-0.732421875,-0.48828125,-1.953125
36120.877556916,-0.197998046875,0.955078125,0.087646484375,-0.732421875,-0.48828125,-1.953125
36120.884804875,-0.197998046875,0.955078125,0.15478515625,-0.732421875,-0.48828125,-1.953125
36120.892847208,-0.197998046875,0.955078125,0.15478515625,-0.732421875,-1.5869140625,-1.953125
36120.892927166,-0.197998046875,0.955078125,0.15478515625,-0.732421875,-1.5869140625,-0.67138671875
36120.907193666,-0.1611328125,0.955078125,0.15478515625,-0.732421875,-1.5869140625,-0.67138671875
36120.907266791,-0.1611328125,1.0245361328125,0.15478515625,-0.732421875,-1.5869140625,-0.67138671875
36120.908637833,-0.1611328125,1.0245361328125,0.158203125,-0.732421875,-1.5869140625,-0.67138671875
36120.922911125,-0.1611328125,1.0245361328125,0.158203125,-0.732421875,-10.498046875,-0.67138671875
36120.923005375,-0.1611328125,1.0245361328125,0.158203125,-0.732421875,-10.498046875,9.27734375
36120.937802583,-0.2275390625,1.0245361328125,0.158203125,-0.732421875,-10.498046875,9.27734375
36120.937941125,-0.2275390625,1.44921875,0.158203125,-0.732421875,-10.498046875,9.27734375
36120.938020791,-0.2275390625,1.44921875,0.12353515625,-0.732421875,-10.498046875,9.27734375
36120.952842208,-0.2275390625,1.44921875,0.12353515625,-0.732421875,-23.13232421875,9.27734375
36120.952957458,-0.2275390625,1.44921875,0.12353515625,-0.732421875,-23.13232421875,28.3203125
36120.968323791,-0.2586669921875,1.44921875,0.12353515625,-0.732421875,-23.13232421875,28.3203125
36120.968377708,-0.2586669921875,1.60107421875,0.12353515625,-0.732421875,-23.13232421875,28.3203125
36120.970064541,-0.2586669921875,1.60107421875,0.007568359375,-0.732421875,-23.13232421875,28.3203125
36120.985050875,-0.2586669921875,1.60107421875,0.007568359375,-0.732421875,-19.8974609375,28.3203125
36120.985131458,-0.2586669921875,1.60107421875,0.007568359375,-0.732421875,-19.8974609375,67.68798828125
36121.001763791,-0.282470703125,1.60107421875,0.007568359375,-0.732421875,-19.8974609375,67.68798828125
36121.001822875,-0.282470703125,1.2825927734375,0.007568359375,-0.732421875,-19.8974609375,67.68798828125
36121.001877083,-0.282470703125,1.2825927734375,0.0487060546875,-0.732421875,-19.8974609375,67.68798828125
36121.018845833,-0.282470703125,1.2825927734375,0.0487060546875,-0.732421875,-26.123046875,67.68798828125
36121.018911708,-0.282470703125,1.2825927734375,0.0487060546875,-0.732421875,-26.123046875,97.16796875
36121.028158958,-0.229736328125,1.2825927734375,0.0487060546875,-0.732421875,-26.123046875,97.16796875
36121.028285125,-0.229736328125,1.3265380859375,0.0487060546875,-0.732421875,-26.123046875,97.16796875
36121.035427458,-0.229736328125,1.3265380859375,-0.1573486328125,-0.732421875,-26.123046875,97.16796875
36121.043469291,-0.229736328125,1.3265380859375,-0.1573486328125,-0.732421875,-27.9541015625,97.16796875
36121.043578875,-0.229736328125,1.3265380859375,-0.1573486328125,-0.732421875,-27.9541015625,120.54443359375
36121.057462708,-0.1612548828125,1.3265380859375,-0.1573486328125,-0.732421875,-27.9541015625,120.54443359375
36121.057605791,-0.1612548828125,1.2275390625,-0.1573486328125,-0.732421875,-27.9541015625,120.54443359375
36121.058300875,-0.1612548828125,1.2275390625,0.02978515625,-0.732421875,-27.9541015625,120.54443359375
36121.072851625,-0.1612548828125,1.2275390625,0.02978515625,-0.732421875,-28.25927734375,120.54443359375
36121.0731415,-0.1612548828125,1.2275390625,0.02978515625,-0.732421875,-28.25927734375,132.4462890625
36121.087376708,-0.152587890625,1.2275390625,0.02978515625,-0.732421875,-28.25927734375,132.4462890625
36121.087501125,-0.152587890625,0.567626953125,0.02978515625,-0.732421875,-28.25927734375,132.4462890625
36121.088537041,-0.152587890625,0.567626953125,0.1309814453125,-0.732421875,-28.25927734375,132.4462890625
36121.102793375,-0.152587890625,0.567626953125,0.1309814453125,-0.732421875,-48.583984375,132.4462890625
36121.102917625,-0.152587890625,0.567626953125,0.1309814453125,-0.732421875,-48.583984375,123.9013671875
36121.118590541,-0.14013671875,0.567626953125,0.1309814453125,-0.732421875,-48.583984375,123.9013671875
36121.118663291,-0.14013671875,0.747314453125,0.1309814453125,-0.732421875,-48.583984375,123.9013671875
36121.118717041,-0.14013671875,0.747314453125,0.1798095703125,-0.732421875,-48.583984375,123.9013671875
36121.135176375,-0.14013671875,0.747314453125,0.1798095703125,-0.732421875,-51.6357421875,123.9013671875
36121.135234541,-0.14013671875,0.747314453125,0.1798095703125,-0.732421875,-51.6357421875,106.01806640625
36121.151860333,-0.1915283203125,0.747314453125,0.1798095703125,-0.732421875,-51.6357421875,106.01806640625
36121.151917875,-0.1915283203125,0.4991455078125,0.1798095703125,-0.732421875,-51.6357421875,106.01806640625
36121.151971041,-0.1915283203125,0.4991455078125,-0.11328125,-0.732421875,-51.6357421875,106.01806640625
36121.168408875,-0.1915283203125,0.4991455078125,-0.11328125,-0.732421875,-49.25537109375,106.01806640625
36121.168471875,-0.1915283203125,0.4991455078125,-0.11328125,-0.732421875,-49.25537109375,78.125
36121.178051625,-0.330322265625,0.4991455078125,-0.11328125,-0.732421875,-49.25537109375,78.125
36121.178169041,-0.330322265625,0.3369140625,-0.11328125,-0.732421875,-49.25537109375,78.125
36121.185037083,-0.330322265625,0.3369140625,-0.11669921875,-0.732421875,-49.25537109375,78.125
36121.193124791,-0.330322265625,0.3369140625,-0.11669921875,-0.732421875,-42.1142578125,78.125
36121.193228416,-0.330322265625,0.3369140625,-0.11669921875,-0.732421875,-42.1142578125,22.88818359375
36121.207563875,-0.5804443359375,0.3369140625,-0.11669921875,-0.732421875,-42.1142578125,22.88818359375
36121.207694958,-0.5804443359375,0.6688232421875,-0.11669921875,-0.732421875,-42.1142578125,22.88818359375
36121.208513208,-0.5804443359375,0.6688232421875,0.02294921875,-0.732421875,-42.1142578125,22.88818359375
36121.223254583,-0.5804443359375,0.6688232421875,0.02294921875,-0.732421875,-45.10498046875,22.88818359375
36121.223387291,-0.5804443359375,0.6688232421875,0.02294921875,-0.732421875,-45.10498046875,-0.79345703125
36121.237474833,-0.807373046875,0.6688232421875,0.02294921875,-0.732421875,-45.10498046875,-0.79345703125
36121.237591291,-0.807373046875,0.898681640625,0.02294921875,-0.732421875,-45.10498046875,-0.79345703125
36121.238316041,-0.807373046875,0.898681640625,0.1915283203125,-0.732421875,-45.10498046875,-0.79345703125
36121.253077041,-0.807373046875,0.898681640625,0.1915283203125,-0.732421875,-42.96875,-0.79345703125
36121.253195583,-0.807373046875,0.898681640625,0.1915283203125,-0.732421875,-42.96875,-6.65283203125
36121.268631375,-1.00439453125,0.898681640625,0.1915283203125,-0.732421875,-42.96875,-6.65283203125
36121.268693791,-1.00439453125,1.0584716796875,0.1915283203125,-0.732421875,-42.96875,-6.65283203125
36121.268809375,-1.00439453125,1.0584716796875,0.2750244140625,-0.732421875,-42.96875,-6.65283203125
36121.28564525,-1.00439453125,1.0584716796875,0.2750244140625,-0.732421875,-47.7294921875,-6.65283203125
36121.28571425,-1.00439453125,1.0584716796875,0.2750244140625,-0.732421875,-47.7294921875,8.1787109375
36121.302717958,-1.158447265625,1.0584716796875,0.2750244140625,-0.732421875,-47.7294921875,8.1787109375
36121.302803041,-1.158447265625,0.9876708984375,0.2750244140625,-0.732421875,-47.7294921875,8.1787109375
36121.302862083,-1.158447265625,0.9876708984375,0.3145751953125,-0.732421875,-47.7294921875,8.1787109375
36121.32782375,-1.158447265625,0.9876708984375,0.3145751953125,-0.732421875,-53.16162109375,8.1787109375
36121.327949208,-1.158447265625,0.9876708984375,0.3145751953125,-0.732421875,-53.16162109375,40.46630859375
36121.329079208,-1.2833251953125,0.9876708984375,0.3145751953125,-0.732421875,-53.16162109375,40.46630859375
36121.329194,-1.2833251953125,0.980224609375,0.3145751953125,-0.732421875,-53.16162109375,40.46630859375
36121.343028041,-1.2833251953125,0.980224609375,0.3145751953125,-0.732421875,-53.89404296875,40.46630859375
36121.343164791,-1.2833251953125,0.980224609375,0.3145751953125,-0.732421875,-53.89404296875,86.12060546875
36121.372755208,-1.3084716796875,0.980224609375,0.3145751953125,-0.732421875,-53.89404296875,86.12060546875
36121.372867166,-1.3084716796875,0.84619140625,0.3145751953125,-0.732421875,-53.89404296875,86.12060546875
36121.375587166,-1.3084716796875,0.84619140625,0.34521484375,-0.732421875,-53.89404296875,86.12060546875
36121.375641125,-1.3084716796875,0.84619140625,0.34521484375,132.4462890625,-53.89404296875,86.12060546875
36121.402023583,-1.220458984375,0.84619140625,0.34521484375,132.4462890625,-53.89404296875,86.12060546875
36121.402081458,-1.220458984375,0.5653076171875,0.34521484375,132.4462890625,-53.89404296875,86.12060546875
36121.402130416,-1.220458984375,0.5653076171875,0.3087158203125,132.4462890625,-53.89404296875,86.12060546875
36121.419041666,-1.220458984375,0.5653076171875,0.3087158203125,132.4462890625,-41.015625,86.12060546875
36121.419100833,-1.220458984375,0.5653076171875,0.3087158203125,132.4462890625,-41.015625,156.73828125
36121.419575541,-1.130615234375,0.5653076171875,0.3087158203125,132.4462890625,-41.015625,156.73828125
36121.420953875,-1.130615234375,0.2860107421875,0.3087158203125,132.4462890625,-41.015625,156.73828125
36121.435277958,-1.130615234375,0.2860107421875,0.3087158203125,132.4462890625,-41.93115234375,156.73828125
36121.435334625,-1.130615234375,0.2860107421875,0.3087158203125,132.4462890625,-41.93115234375,168.45703125
36121.462790833,-1.1544189453125,0.2860107421875,0.3087158203125,132.4462890625,-41.93115234375,168.45703125
36121.468568541,-1.1544189453125,0.1064453125,0.3087158203125,132.4462890625,-41.93115234375,168.45703125
36121.4686675,-1.1544189453125,0.1064453125,0.294677734375,132.4462890625,-41.93115234375,168.45703125
36121.468723708,-1.1544189453125,0.1064453125,0.294677734375,132.4462890625,-40.22216796875,168.45703125
36121.492963541,-1.19384765625,0.1064453125,0.294677734375,132.4462890625,-40.22216796875,168.45703125
36121.493080958,-1.19384765625,-0.033447265625,0.294677734375,132.4462890625,-40.22216796875,168.45703125
36121.493669833,-1.19384765625,-0.033447265625,0.29833984375,132.4462890625,-40.22216796875,168.45703125
36121.493777916,-1.19384765625,-0.033447265625,0.29833984375,147.39990234375,-40.22216796875,168.45703125
36121.507481791,-1.1904296875,-0.033447265625,0.29833984375,147.39990234375,-40.22216796875,168.45703125
36121.510793333,-1.1904296875,-0.2286376953125,0.29833984375,147.39990234375,-40.22216796875,168.45703125
36121.510834208,-1.1904296875,-0.2286376953125,0.4039306640625,147.39990234375,-40.22216796875,168.45703125
36121.523512,-1.1904296875,-0.2286376953125,0.4039306640625,147.39990234375,-21.728515625,168.45703125
36121.523560958,-1.1904296875,-0.2286376953125,0.4039306640625,147.39990234375,-21.728515625,167.3583984375
36121.537336916,-1.147216796875,-0.2286376953125,0.4039306640625,147.39990234375,-21.728515625,167.3583984375
36121.537433375,-1.147216796875,-0.25634765625,0.4039306640625,147.39990234375,-21.728515625,167.3583984375
36121.538377875,-1.147216796875,-0.25634765625,0.2467041015625,147.39990234375,-21.728515625,167.3583984375
36121.552927708,-1.147216796875,-0.25634765625,0.2467041015625,147.39990234375,-17.02880859375,167.3583984375
36121.553042791,-1.147216796875,-0.25634765625,0.2467041015625,147.39990234375,-17.02880859375,156.8603515625
36121.568397125,-1.0723876953125,-0.25634765625,0.2467041015625,147.39990234375,-17.02880859375,156.8603515625
36121.568533708,-1.0723876953125,-0.389404296875,0.2467041015625,147.39990234375,-17.02880859375,156.8603515625
36121.568701708,-1.0723876953125,-0.389404296875,0.2122802734375,147.39990234375,-17.02880859375,156.8603515625
36121.585006416,-1.0723876953125,-0.389404296875,0.2122802734375,147.39990234375,-14.58740234375,156.8603515625
36121.585053,-1.0723876953125,-0.389404296875,0.2122802734375,147.39990234375,-14.58740234375,136.474609375
36121.601274583,-1.0224609375,-0.389404296875,0.2122802734375,147.39990234375,-14.58740234375,136.474609375
36121.617792166,-1.0224609375,-0.3919677734375,0.2122802734375,147.39990234375,-14.58740234375,136.474609375
36121.617834416,-1.0224609375,-0.3919677734375,0.2076416015625,147.39990234375,-14.58740234375,136.474609375
36121.628803666,-1.0224609375,-0.3919677734375,0.2076416015625,147.39990234375,-17.2119140625,136.474609375
36121.635286125,-1.0224609375,-0.3919677734375,0.2076416015625,147.39990234375,-17.2119140625,110.7177734375
36121.635601625,-0.9749755859375,-0.3919677734375,0.2076416015625,147.39990234375,-17.2119140625,110.7177734375
36121.635657708,-0.9749755859375,-0.4559326171875,0.2076416015625,147.39990234375,-17.2119140625,110.7177734375
36121.643293041,-0.9749755859375,-0.4559326171875,0.2076416015625,147.39990234375,-18.310546875,110.7177734375
36121.64377825,-0.9749755859375,-0.4559326171875,0.2076416015625,147.39990234375,-18.310546875,87.158203125
36121.658488291,-0.90234375,-0.4559326171875,0.2076416015625,147.39990234375,-18.310546875,87.158203125
36121.658677666,-0.90234375,-0.4642333984375,0.2076416015625,147.39990234375,-18.310546875,87.158203125
36121.672488125,-0.90234375,-0.4642333984375,0.1383056640625,147.39990234375,-18.310546875,87.158203125
36121.672551125,-0.90234375,-0.4642333984375,0.1383056640625,147.39990234375,-16.6015625,87.158203125
36121.673274833,-0.90234375,-0.4642333984375,0.1383056640625,147.39990234375,-16.6015625,53.40576171875
36121.702765916,-0.830322265625,-0.4642333984375,0.1383056640625,147.39990234375,-16.6015625,53.40576171875
36121.702860666,-0.830322265625,-0.5684814453125,0.1383056640625,147.39990234375,-16.6015625,53.40576171875
36121.703719166,-0.830322265625,-0.5684814453125,0.0228271484375,147.39990234375,-16.6015625,53.40576171875
36121.717829458,-0.830322265625,-0.5684814453125,0.0228271484375,147.39990234375,-7.87353515625,53.40576171875
36121.761425375,-0.6904296875,-0.5684814453125,0.0228271484375,147.39990234375,-7.87353515625,53.40576171875
36121.763823708,-0.6904296875,-0.51025390625,0.0228271484375,147.39990234375,-7.87353515625,53.40576171875
36121.763911291,-0.6904296875,-0.51025390625,0.02685546875,147.39990234375,-7.87353515625,53.40576171875
36121.778234708,-0.6904296875,-0.51025390625,0.02685546875,147.39990234375,-0.9765625,53.40576171875
36121.778334125,-0.6904296875,-0.51025390625,0.02685546875,147.39990234375,-0.9765625,-12.26806640625
36121.807509666,-0.5472412109375,-0.51025390625,0.02685546875,147.39990234375,-0.9765625,-12.26806640625
36121.80762925,-0.5472412109375,-0.426513671875,0.02685546875,147.39990234375,-0.9765625,-12.26806640625
36121.808766291,-0.5472412109375,-0.426513671875,0.069091796875,147.39990234375,-0.9765625,-12.26806640625
36121.822701625,-0.5472412109375,-0.426513671875,0.069091796875,147.39990234375,14.22119140625,-12.26806640625
36121.853219125,-0.5472412109375,-0.426513671875,0.069091796875,147.39990234375,14.22119140625,-53.89404296875
36121.853388958,-0.4310302734375,-0.426513671875,0.069091796875,147.39990234375,14.22119140625,-53.89404296875
36121.853519041,-0.4310302734375,-0.31787109375,0.069091796875,147.39990234375,14.22119140625,-53.89404296875
36121.85392175,-0.4310302734375,-0.31787109375,0.0538330078125,147.39990234375,14.22119140625,-53.89404296875
36121.868681458,-0.4310302734375,-0.31787109375,0.0538330078125,147.39990234375,17.27294921875,-53.89404296875
36121.86874525,-0.4310302734375,-0.31787109375,0.0538330078125,147.39990234375,17.27294921875,-63.65966796875
36121.896979083,-0.410888671875,-0.31787109375,0.0538330078125,147.39990234375,17.27294921875,-63.65966796875
36121.912935833,-0.410888671875,-0.158203125,0.0538330078125,147.39990234375,17.27294921875,-63.65966796875
36121.91309225,-0.410888671875,-0.158203125,0.001708984375,147.39990234375,17.27294921875,-63.65966796875
36121.91366325,-0.410888671875,-0.158203125,0.001708984375,75.25634765625,17.27294921875,-63.65966796875
36121.913784375,-0.4449462890625,-0.158203125,0.001708984375,75.25634765625,17.27294921875,-63.65966796875
36121.935488875,-0.4449462890625,-0.158203125,-0.0355224609375,75.25634765625,17.27294921875,-63.65966796875
36121.935569916,-0.4449462890625,-0.158203125,-0.0355224609375,59.814453125,17.27294921875,-63.65966796875
36121.9356255,-0.4449462890625,-0.158203125,-0.0355224609375,59.814453125,13.0615234375,-63.65966796875
36121.942874666,-0.5150146484375,-0.158203125,-0.0355224609375,59.814453125,13.0615234375,-63.65966796875
36121.957861958,-0.5150146484375,-0.2125244140625,-0.0355224609375,59.814453125,13.0615234375,-63.65966796875
36121.957994333,-0.5150146484375,-0.2125244140625,0.052001953125,59.814453125,13.0615234375,-63.65966796875
36121.958863583,-0.5150146484375,-0.2125244140625,0.052001953125,59.814453125,0.9765625,-63.65966796875
36121.986930583,-0.5150146484375,-0.2125244140625,0.052001953125,59.814453125,0.9765625,-30.3955078125
36122.003239125,-0.638916015625,-0.2125244140625,0.052001953125,59.814453125,0.9765625,-30.3955078125
36122.006554041,-0.638916015625,-0.2171630859375,0.052001953125,59.814453125,0.9765625,-30.3955078125
36122.006623916,-0.638916015625,-0.2171630859375,0.0716552734375,59.814453125,0.9765625,-30.3955078125
36122.007326166,-0.638916015625,-0.2171630859375,0.0716552734375,59.814453125,-6.8359375,-30.3955078125
36122.035503291,-0.7685546875,-0.2171630859375,0.0716552734375,59.814453125,-6.8359375,-30.3955078125
36122.036014166,-0.7685546875,-0.3546142578125,0.0716552734375,59.814453125,-6.8359375,-30.3955078125
36122.036161958,-0.7685546875,-0.3546142578125,0.0079345703125,59.814453125,-6.8359375,-30.3955078125
36122.036481416,-0.7685546875,-0.3546142578125,0.0079345703125,-0.91552734375,-6.8359375,-30.3955078125
36122.062830083,-0.786865234375,-0.3546142578125,0.0079345703125,-0.91552734375,-6.8359375,-30.3955078125
36122.068368875,-0.786865234375,-0.384521484375,0.0079345703125,-0.91552734375,-6.8359375,-30.3955078125
36122.068605166,-0.786865234375,-0.384521484375,0.0087890625,-0.91552734375,-6.8359375,-30.3955078125
36122.068648416,-0.786865234375,-0.384521484375,0.0087890625,-5.2490234375,-6.8359375,-30.3955078125
36122.107745666,-0.801513671875,-0.384521484375,0.0087890625,-5.2490234375,-6.8359375,-30.3955078125
36122.107835583,-0.801513671875,-0.4490966796875,0.0087890625,-5.2490234375,-6.8359375,-30.3955078125
36122.108580333,-0.801513671875,-0.4490966796875,0.010986328125,-5.2490234375,-6.8359375,-30.3955078125
36122.10862075,-0.801513671875,-0.4490966796875,0.010986328125,-5.2490234375,-19.6533203125,-30.3955078125
36122.123214625,-0.813232421875,-0.4490966796875,0.010986328125,-5.2490234375,-19.6533203125,-30.3955078125
36122.123257166,-0.813232421875,-0.4739990234375,0.010986328125,-5.2490234375,-19.6533203125,-30.3955078125
36122.123338958,-0.813232421875,-0.4739990234375,-0.0006103515625,-5.2490234375,-19.6533203125,-30.3955078125
36122.151462416,-0.813232421875,-0.4739990234375,-0.0006103515625,-5.2490234375,-20.8740234375,-30.3955078125
36122.152283541,-0.813232421875,-0.4739990234375,-0.0006103515625,-5.2490234375,-20.8740234375,41.015625
36122.153863541,-0.762939453125,-0.4739990234375,-0.0006103515625,-5.2490234375,-20.8740234375,41.015625
36122.153968875,-0.762939453125,-0.48291015625,-0.0006103515625,-5.2490234375,-20.8740234375,41.015625
36122.168408125,-0.762939453125,-0.48291015625,-0.0006103515625,-5.2490234375,-20.20263671875,41.015625
36122.168458125,-0.762939453125,-0.48291015625,-0.0006103515625,-5.2490234375,-20.20263671875,40.46630859375
36122.197591083,-0.807373046875,-0.48291015625,-0.0006103515625,-5.2490234375,-20.20263671875,40.46630859375
36122.197754833,-0.807373046875,-0.568359375,-0.0006103515625,-5.2490234375,-20.20263671875,40.46630859375
36122.198541083,-0.807373046875,-0.568359375,-0.0054931640625,-5.2490234375,-20.20263671875,40.46630859375
36122.198630625,-0.807373046875,-0.568359375,-0.0054931640625,-29.23583984375,-20.20263671875,40.46630859375
36122.227699083,-0.7740478515625,-0.568359375,-0.0054931640625,-29.23583984375,-20.20263671875,40.46630859375
36122.22775125,-0.7740478515625,-0.547607421875,-0.0054931640625,-29.23583984375,-20.20263671875,40.46630859375
36122.235346583,-0.7740478515625,-0.547607421875,0.011962890625,-29.23583984375,-20.20263671875,40.46630859375
36122.235394333,-0.7740478515625,-0.547607421875,0.011962890625,-29.23583984375,-18.1884765625,40.46630859375
36122.257962458,-0.6444091796875,-0.547607421875,0.011962890625,-29.23583984375,-18.1884765625,40.46630859375
36122.258071291,-0.6444091796875,-0.497802734375,0.011962890625,-29.23583984375,-18.1884765625,40.46630859375
36122.259264541,-0.6444091796875,-0.497802734375,0.0164794921875,-29.23583984375,-18.1884765625,40.46630859375
36122.25936075,-0.6444091796875,-0.497802734375,0.0164794921875,-29.23583984375,-15.7470703125,40.46630859375
36122.272372583,-0.5859375,-0.497802734375,0.0164794921875,-29.23583984375,-15.7470703125,40.46630859375
36122.272461458,-0.5859375,-0.5220947265625,0.0164794921875,-29.23583984375,-15.7470703125,40.46630859375
36122.273253791,-0.5859375,-0.5220947265625,-0.003173828125,-29.23583984375,-15.7470703125,40.46630859375
36122.287642791,-0.5859375,-0.5220947265625,-0.003173828125,-29.23583984375,-14.46533203125,40.46630859375
36122.302671083,-0.5859375,-0.5220947265625,-0.003173828125,-29.23583984375,-14.46533203125,49.072265625
36122.317962041,-0.521728515625,-0.5220947265625,-0.003173828125,-29.23583984375,-14.46533203125,49.072265625
36122.346396916,-0.521728515625,-0.5538330078125,-0.003173828125,-29.23583984375,-14.46533203125,49.072265625
36122.3496565,-0.521728515625,-0.5538330078125,-0.0186767578125,-29.23583984375,-14.46533203125,49.072265625
36122.349768791,-0.521728515625,-0.5538330078125,-0.0186767578125,-29.23583984375,-10.19287109375,49.072265625
36122.349833708,-0.521728515625,-0.5538330078125,-0.0186767578125,-29.23583984375,-10.19287109375,56.33544921875
36122.368043041,-0.521728515625,-0.5538330078125,-0.09033203125,-29.23583984375,-10.19287109375,56.33544921875
36122.368087208,-0.521728515625,-0.5538330078125,-0.09033203125,-25.146484375,-10.19287109375,56.33544921875
36122.368123625,-0.521728515625,-0.5538330078125,-0.09033203125,-25.146484375,-6.65283203125,56.33544921875
36122.407655083,-0.427490234375,-0.5538330078125,-0.09033203125,-25.146484375,-6.65283203125,56.33544921875
36122.407759041,-0.427490234375,-0.627197265625,-0.09033203125,-25.146484375,-6.65283203125,56.33544921875
36122.408608,-0.427490234375,-0.627197265625,-0.06005859375,-25.146484375,-6.65283203125,56.33544921875
36122.41099625,-0.427490234375,-0.627197265625,-0.06005859375,-21.54541015625,-6.65283203125,56.33544921875
36122.438177583,-0.315673828125,-0.627197265625,-0.06005859375,-21.54541015625,-6.65283203125,56.33544921875
36122.466613791,-0.315673828125,-0.5982666015625,-0.06005859375,-21.54541015625,-6.65283203125,56.33544921875
36122.470053541,-0.315673828125,-0.5982666015625,0.001708984375,-21.54541015625,-6.65283203125,56.33544921875
36122.47012275,-0.315673828125,-0.5982666015625,0.001708984375,-31.18896484375,-6.65283203125,56.33544921875
36122.470178541,-0.36962890625,-0.5982666015625,0.001708984375,-31.18896484375,-6.65283203125,56.33544921875
36122.497558083,-0.36962890625,-0.5982666015625,-0.1318359375,-31.18896484375,-6.65283203125,56.33544921875
36122.497701666,-0.36962890625,-0.5982666015625,-0.1318359375,-29.1748046875,-6.65283203125,56.33544921875
36122.498378833,-0.36962890625,-0.5982666015625,-0.1318359375,-29.1748046875,5.0048828125,56.33544921875
36122.527598083,-0.358154296875,-0.5982666015625,-0.1318359375,-29.1748046875,5.0048828125,56.33544921875
36122.527700333,-0.358154296875,-0.5814208984375,-0.1318359375,-29.1748046875,5.0048828125,56.33544921875
36122.543123208,-0.358154296875,-0.5814208984375,0.043212890625,-29.1748046875,5.0048828125,56.33544921875
36122.543224958,-0.358154296875,-0.5814208984375,0.043212890625,-29.1748046875,5.0048828125,34.5458984375
36122.543261708,-0.736328125,-0.5814208984375,0.043212890625,-29.1748046875,5.0048828125,34.5458984375
36122.544483125,-0.736328125,-0.8082275390625,0.043212890625,-29.1748046875,5.0048828125,34.5458984375
36122.55824425,-0.736328125,-0.8082275390625,0.043212890625,-29.1748046875,25.5126953125,34.5458984375
36122.558376708,-0.736328125,-0.8082275390625,0.043212890625,-29.1748046875,25.5126953125,8.36181640625
36122.603193333,-0.6683349609375,-0.8082275390625,0.043212890625,-29.1748046875,25.5126953125,8.36181640625
36122.605499791,-0.6683349609375,-0.6187744140625,0.043212890625,-29.1748046875,25.5126953125,8.36181640625
36122.605589708,-0.6683349609375,-0.6187744140625,0.1851806640625,-29.1748046875,25.5126953125,8.36181640625
36122.605636083,-0.6683349609375,-0.6187744140625,0.1851806640625,-55.419921875,25.5126953125,8.36181640625
36122.634774375,-0.943115234375,-0.6187744140625,0.1851806640625,-55.419921875,25.5126953125,8.36181640625
36122.634814458,-0.943115234375,-0.8426513671875,0.1851806640625,-55.419921875,25.5126953125,8.36181640625
36122.634847041,-0.943115234375,-0.8426513671875,0.2208251953125,-55.419921875,25.5126953125,8.36181640625
36122.635841083,-0.943115234375,-0.8426513671875,0.2208251953125,-55.419921875,27.7099609375,8.36181640625
36122.6764695,-0.815185546875,-0.8426513671875,0.2208251953125,-55.419921875,27.7099609375,8.36181640625
36122.67861525,-0.815185546875,-0.7630615234375,0.2208251953125,-55.419921875,27.7099609375,8.36181640625
36122.6787455,-0.815185546875,-0.7630615234375,0.1480712890625,-55.419921875,27.7099609375,8.36181640625
36122.678815958,-0.815185546875,-0.7630615234375,0.1480712890625,-55.419921875,32.2265625,8.36181640625
36122.722715416,-0.931640625,-0.7630615234375,0.1480712890625,-55.419921875,32.2265625,8.36181640625
36122.725865208,-0.931640625,-0.720458984375,0.1480712890625,-55.419921875,32.2265625,8.36181640625
36122.725920333,-0.931640625,-0.720458984375,0.3697509765625,-55.419921875,32.2265625,8.36181640625
36122.725983958,-0.931640625,-0.720458984375,0.3697509765625,-111.4501953125,32.2265625,8.36181640625
36122.752936708,-0.9345703125,-0.720458984375,0.3697509765625,-111.4501953125,32.2265625,8.36181640625
36122.753063875,-0.9345703125,-0.530517578125,0.3697509765625,-111.4501953125,32.2265625,8.36181640625
36122.754191041,-0.9345703125,-0.530517578125,0.5638427734375,-111.4501953125,32.2265625,8.36181640625
36122.768990791,-0.9345703125,-0.530517578125,0.5638427734375,-99.67041015625,32.2265625,8.36181640625
36122.769048333,-1.0606689453125,-0.530517578125,0.5638427734375,-99.67041015625,32.2265625,8.36181640625
36122.769097166,-1.0606689453125,-0.32861328125,0.5638427734375,-99.67041015625,32.2265625,8.36181640625
36122.769143083,-1.0606689453125,-0.32861328125,0.4688720703125,-99.67041015625,32.2265625,8.36181640625
36122.79766475,-1.0606689453125,-0.32861328125,0.4688720703125,-99.67041015625,10.43701171875,8.36181640625
36122.797805833,-1.0606689453125,-0.32861328125,0.4688720703125,-99.67041015625,10.43701171875,-131.103515625
36122.799358791,-1.08935546875,-0.32861328125,0.4688720703125,-99.67041015625,10.43701171875,-131.103515625
36122.799449083,-1.08935546875,-0.2874755859375,0.4688720703125,-99.67041015625,10.43701171875,-131.103515625
36122.819040458,-1.08935546875,-0.2874755859375,0.4688720703125,-99.67041015625,1.77001953125,-131.103515625
36122.819081458,-1.08935546875,-0.2874755859375,0.4688720703125,-99.67041015625,1.77001953125,-137.14599609375
36122.857686125,-1.277587890625,-0.2874755859375,0.4688720703125,-99.67041015625,1.77001953125,-137.14599609375
36122.857808416,-1.277587890625,-0.1064453125,0.4688720703125,-99.67041015625,1.77001953125,-137.14599609375
36122.858932916,-1.277587890625,-0.1064453125,0.6982421875,-99.67041015625,1.77001953125,-137.14599609375
36122.859028916,-1.277587890625,-0.1064453125,0.6982421875,-110.9619140625,1.77001953125,-137.14599609375
36122.885589875,-1.5814208984375,-0.1064453125,0.6982421875,-110.9619140625,1.77001953125,-137.14599609375
36122.88563325,-1.5814208984375,-0.3321533203125,0.6982421875,-110.9619140625,1.77001953125,-137.14599609375
36122.885666,-1.5814208984375,-0.3321533203125,0.8663330078125,-110.9619140625,1.77001953125,-137.14599609375
36122.887925541,-1.5814208984375,-0.3321533203125,0.8663330078125,-110.9619140625,8.9111328125,-137.14599609375
36122.888035583,-1.5814208984375,-0.3321533203125,0.8663330078125,-110.9619140625,8.9111328125,-70.3125
36122.961452125,-1.253662109375,-0.3321533203125,0.8663330078125,-110.9619140625,8.9111328125,-70.3125
36122.964001291,-1.253662109375,-0.291015625,0.8663330078125,-110.9619140625,8.9111328125,-70.3125
36122.964038458,-1.253662109375,-0.291015625,0.7708740234375,-110.9619140625,8.9111328125,-70.3125
36122.964070666,-1.253662109375,-0.291015625,0.7708740234375,55.48095703125,8.9111328125,-70.3125
36122.985055375,-1.00634765625,-0.291015625,0.7708740234375,55.48095703125,8.9111328125,-70.3125
36122.985095416,-1.00634765625,-0.3455810546875,0.7708740234375,55.48095703125,8.9111328125,-70.3125
36122.985127208,-1.00634765625,-0.3455810546875,0.5938720703125,55.48095703125,8.9111328125,-70.3125
36122.993300291,-1.00634765625,-0.3455810546875,0.5938720703125,55.48095703125,33.26416015625,-70.3125
36122.993377708,-1.00634765625,-0.3455810546875,0.5938720703125,55.48095703125,33.26416015625,14.34326171875
36123.007777708,-0.7928466796875,-0.3455810546875,0.5938720703125,55.48095703125,33.26416015625,14.34326171875
36123.007868291,-0.7928466796875,-0.1739501953125,0.5938720703125,55.48095703125,33.26416015625,14.34326171875
36123.009099916,-0.7928466796875,-0.1739501953125,0.4638671875,55.48095703125,33.26416015625,14.34326171875
36123.037892083,-0.7928466796875,-0.1739501953125,0.4638671875,55.48095703125,-9.70458984375,14.34326171875
36123.037978833,-0.7928466796875,-0.1739501953125,0.4638671875,55.48095703125,-9.70458984375,-6.7138671875
36123.038676416,-0.8221435546875,-0.1739501953125,0.4638671875,55.48095703125,-9.70458984375,-6.7138671875
36123.052796541,-0.8221435546875,-0.1739501953125,0.5146484375,55.48095703125,-9.70458984375,-6.7138671875
36123.069818833,-0.8221435546875,-0.1739501953125,0.5146484375,-28.62548828125,-9.70458984375,-6.7138671875
36123.070091791,-0.8221435546875,-0.1739501953125,0.5146484375,-28.62548828125,-16.4794921875,-6.7138671875
36123.070387375,-0.8665771484375,-0.1739501953125,0.5146484375,-28.62548828125,-16.4794921875,-6.7138671875
36123.070437541,-0.8665771484375,-0.1695556640625,0.5146484375,-28.62548828125,-16.4794921875,-6.7138671875
36123.084787791,-0.8665771484375,-0.1695556640625,0.5146484375,-28.62548828125,-20.3857421875,-6.7138671875
36123.084828416,-0.8665771484375,-0.1695556640625,0.5146484375,-28.62548828125,-20.3857421875,-8.85009765625
NEW_REP,,,,,,
36123.112990291,-0.9591064453125,-0.1695556640625,0.5146484375,-28.62548828125,-20.3857421875,-8.85009765625
36123.11558325,-0.9591064453125,-0.176025390625,0.5146484375,-28.62548828125,-20.3857421875,-8.85009765625
36123.11567475,-0.9591064453125,-0.176025390625,0.5703125,-28.62548828125,-20.3857421875,-8.85009765625
36123.115729875,-0.9591064453125,-0.176025390625,0.5703125,-0.9765625,-20.3857421875,-8.85009765625
36123.135223958,-1.0704345703125,-0.176025390625,0.5703125,-0.9765625,-20.3857421875,-8.85009765625
36123.135286708,-1.0704345703125,-0.241455078125,0.5703125,-0.9765625,-20.3857421875,-8.85009765625
36123.135341333,-1.0704345703125,-0.241455078125,0.6229248046875,-0.9765625,-20.3857421875,-8.85009765625
36123.143272,-1.0704345703125,-0.241455078125,0.6229248046875,-0.9765625,-23.49853515625,-8.85009765625
36123.143404166,-1.0704345703125,-0.241455078125,0.6229248046875,-0.9765625,-23.49853515625,-2.01416015625
36123.157455458,-1.17041015625,-0.241455078125,0.6229248046875,-0.9765625,-23.49853515625,-2.01416015625
36123.157544833,-1.17041015625,-0.2813720703125,0.6229248046875,-0.9765625,-23.49853515625,-2.01416015625
36123.158497416,-1.17041015625,-0.2813720703125,0.6627197265625,-0.9765625,-23.49853515625,-2.01416015625
36123.173209791,-1.17041015625,-0.2813720703125,0.6627197265625,-0.9765625,-24.96337890625,-2.01416015625
36123.173317,-1.17041015625,-0.2813720703125,0.6627197265625,-0.9765625,-24.96337890625,9.765625
36123.201482916,-1.240966796875,-0.2813720703125,0.6627197265625,-0.9765625,-24.96337890625,9.765625
36123.2039985,-1.240966796875,-0.3291015625,0.6627197265625,-0.9765625,-24.96337890625,9.765625
36123.204185291,-1.240966796875,-0.3291015625,0.6767578125,-0.9765625,-24.96337890625,9.765625
36123.204250375,-1.240966796875,-0.3291015625,0.6767578125,-0.9765625,-27.34375,9.765625
36123.219196541,-1.2698974609375,-0.3291015625,0.6767578125,-0.9765625,-27.34375,9.765625
36123.219255791,-1.2698974609375,-0.24755859375,0.6767578125,-0.9765625,-27.34375,9.765625
36123.219307333,-1.2698974609375,-0.24755859375,0.578857421875,-0.9765625,-27.34375,9.765625
36123.23579325,-1.2698974609375,-0.24755859375,0.578857421875,-0.9765625,-29.84619140625,9.765625
36123.235851875,-1.2698974609375,-0.24755859375,0.578857421875,-0.9765625,-29.84619140625,29.23583984375
36123.252206375,-1.2625732421875,-0.24755859375,0.578857421875,-0.9765625,-29.84619140625,29.23583984375
36123.252265166,-1.2625732421875,-0.279541015625,0.578857421875,-0.9765625,-29.84619140625,29.23583984375
36123.252318458,-1.2625732421875,-0.279541015625,0.5654296875,-0.9765625,-29.84619140625,29.23583984375
36123.268795541,-1.2625732421875,-0.279541015625,0.5654296875,-0.9765625,-27.03857421875,29.23583984375
36123.268851125,-1.2625732421875,-0.279541015625,0.5654296875,-0.9765625,-27.03857421875,34.423828125
36123.277640416,-1.2432861328125,-0.279541015625,0.5654296875,-0.9765625,-27.03857421875,34.423828125
36123.277755041,-1.2432861328125,-0.168701171875,0.5654296875,-0.9765625,-27.03857421875,34.423828125
36123.285669833,-1.2432861328125,-0.168701171875,0.466796875,-0.9765625,-27.03857421875,34.423828125
36123.292938,-1.2432861328125,-0.168701171875,0.466796875,-0.9765625,-25.45166015625,34.423828125
36123.293047458,-1.2432861328125,-0.168701171875,0.466796875,-0.9765625,-25.45166015625,43.64013671875
36123.30765025,-1.142822265625,-0.168701171875,0.466796875,-0.9765625,-25.45166015625,43.64013671875
36123.307764333,-1.142822265625,-0.1962890625,0.466796875,-0.9765625,-25.45166015625,43.64013671875
36123.308470791,-1.142822265625,-0.1962890625,0.360595703125,-0.9765625,-25.45166015625,43.64013671875
36123.352255125,-1.142822265625,-0.1962890625,0.360595703125,-0.9765625,-19.04296875,43.64013671875
36123.369108208,-1.142822265625,-0.1962890625,0.360595703125,-0.9765625,-19.04296875,47.42431640625
36123.3692145,-1.06396484375,-0.1962890625,0.360595703125,-0.9765625,-19.04296875,47.42431640625
36123.369405875,-1.06396484375,-0.1751708984375,0.360595703125,-0.9765625,-19.04296875,47.42431640625
36123.369462416,-1.06396484375,-0.1751708984375,0.360595703125,-0.9765625,-18.5546875,47.42431640625
36123.411696541,-1.0257568359375,-0.1751708984375,0.360595703125,-0.9765625,-18.5546875,47.42431640625
36123.413978375,-1.0257568359375,-0.2508544921875,0.360595703125,-0.9765625,-18.5546875,47.42431640625
36123.414100875,-1.0257568359375,-0.2508544921875,0.2847900390625,-0.9765625,-18.5546875,47.42431640625
36123.428321875,-1.0257568359375,-0.2508544921875,0.2847900390625,-3.35693359375,-18.5546875,47.42431640625
36123.443382291,-0.9765625,-0.2508544921875,0.2847900390625,-3.35693359375,-18.5546875,47.42431640625
36123.443563333,-0.9765625,-0.3338623046875,0.2847900390625,-3.35693359375,-18.5546875,47.42431640625
36123.443743041,-0.9765625,-0.3338623046875,0.2718505859375,-3.35693359375,-18.5546875,47.42431640625
36123.457991666,-0.9765625,-0.3338623046875,0.2718505859375,-3.35693359375,-25.5126953125,47.42431640625
36123.458154916,-0.9765625,-0.3338623046875,0.2718505859375,-3.35693359375,-25.5126953125,21.240234375
36123.487696958,-0.906982421875,-0.3338623046875,0.2718505859375,-3.35693359375,-25.5126953125,21.240234375
36123.487789083,-0.906982421875,-0.2967529296875,0.2718505859375,-3.35693359375,-25.5126953125,21.240234375
36123.488989833,-0.906982421875,-0.2967529296875,0.21533203125,-3.35693359375,-25.5126953125,21.240234375
36123.489062958,-0.906982421875,-0.2967529296875,0.21533203125,-28.25927734375,-25.5126953125,21.240234375
36123.546874791,-0.8638916015625,-0.2967529296875,0.21533203125,-28.25927734375,-25.5126953125,21.240234375
36123.547785083,-0.8638916015625,-0.194580078125,0.21533203125,-28.25927734375,-25.5126953125,21.240234375
36123.547851208,-0.8638916015625,-0.194580078125,0.364990234375,-28.25927734375,-25.5126953125,21.240234375
36123.562514708,-0.8638916015625,-0.194580078125,0.364990234375,-28.25927734375,-30.70068359375,21.240234375
36123.562608333,-0.8638916015625,-0.194580078125,0.364990234375,-28.25927734375,-30.70068359375,-23.74267578125
36123.594567833,-0.8167724609375,-0.194580078125,0.364990234375,-28.25927734375,-30.70068359375,-23.74267578125
36123.594738291,-0.8167724609375,-0.27001953125,0.364990234375,-28.25927734375,-30.70068359375,-23.74267578125
36123.594798083,-0.8167724609375,-0.27001953125,0.17822265625,-28.25927734375,-30.70068359375,-23.74267578125
36123.594839041,-0.8167724609375,-0.27001953125,0.17822265625,44.49462890625,-30.70068359375,-23.74267578125
36123.607295125,-0.734130859375,-0.27001953125,0.17822265625,44.49462890625,-30.70068359375,-23.74267578125
36123.607380708,-0.734130859375,-0.1258544921875,0.17822265625,44.49462890625,-30.70068359375,-23.74267578125
36123.608335041,-0.734130859375,-0.1258544921875,0.2515869140625,44.49462890625,-30.70068359375,-23.74267578125
36123.652439458,-0.734130859375,-0.1258544921875,0.2515869140625,44.49462890625,-32.1044921875,-23.74267578125
36123.655025916,-0.734130859375,-0.1258544921875,0.2515869140625,44.49462890625,-32.1044921875,-70.9228515625
36123.655177708,-0.660400390625,-0.1258544921875,0.2515869140625,44.49462890625,-32.1044921875,-70.9228515625
36123.655226125,-0.660400390625,-0.1265869140625,0.2515869140625,44.49462890625,-32.1044921875,-70.9228515625
36123.6826615,-0.660400390625,-0.1265869140625,0.2515869140625,44.49462890625,-28.80859375,-70.9228515625
36123.682807333,-0.660400390625,-0.1265869140625,0.2515869140625,44.49462890625,-28.80859375,-73.54736328125
36123.682884166,-0.6158447265625,-0.1265869140625,0.2515869140625,44.49462890625,-28.80859375,-73.54736328125
36123.683509791,-0.6158447265625,-0.03955078125,0.2515869140625,44.49462890625,-28.80859375,-73.54736328125
36123.697862541,-0.6158447265625,-0.03955078125,0.2515869140625,44.49462890625,-22.8271484375,-73.54736328125
36123.697994666,-0.6158447265625,-0.03955078125,0.2515869140625,44.49462890625,-22.8271484375,-81.54296875
36123.72654025,-0.630859375,-0.03955078125,0.2515869140625,44.49462890625,-22.8271484375,-81.54296875
36123.728614583,-0.630859375,-0.0469970703125,0.2515869140625,44.49462890625,-22.8271484375,-81.54296875
36123.728714291,-0.630859375,-0.0469970703125,0.19482421875,44.49462890625,-22.8271484375,-81.54296875
36123.735359708,-0.630859375,-0.0469970703125,0.19482421875,56.21337890625,-22.8271484375,-81.54296875
36123.757722583,-0.6368408203125,-0.0469970703125,0.19482421875,56.21337890625,-22.8271484375,-81.54296875
36123.757839291,-0.6368408203125,-0.0194091796875,0.19482421875,56.21337890625,-22.8271484375,-81.54296875
36123.758844291,-0.6368408203125,-0.0194091796875,0.0465087890625,56.21337890625,-22.8271484375,-81.54296875
36123.7589565,-0.6368408203125,-0.0194091796875,0.0465087890625,39.97802734375,-22.8271484375,-81.54296875
36123.772873916,-0.6165771484375,-0.0194091796875,0.0465087890625,39.97802734375,-22.8271484375,-81.54296875
36123.773025125,-0.6165771484375,0.082763671875,0.0465087890625,39.97802734375,-22.8271484375,-81.54296875
36123.773091083,-0.6165771484375,0.082763671875,0.017822265625,39.97802734375,-22.8271484375,-81.54296875
36123.7878225,-0.6165771484375,0.082763671875,0.017822265625,39.97802734375,-28.6865234375,-81.54296875
36123.787933583,-0.6165771484375,0.082763671875,0.017822265625,39.97802734375,-28.6865234375,-64.39208984375
36123.802308,-0.6595458984375,0.082763671875,0.017822265625,39.97802734375,-28.6865234375,-64.39208984375
36123.818679875,-0.6595458984375,0.088134765625,0.017822265625,39.97802734375,-28.6865234375,-64.39208984375
36123.818736083,-0.6595458984375,0.088134765625,-0.0048828125,39.97802734375,-28.6865234375,-64.39208984375
36123.818785125,-0.6595458984375,0.088134765625,-0.0048828125,39.97802734375,-22.705078125,-64.39208984375
36123.819190125,-0.6595458984375,0.088134765625,-0.0048828125,39.97802734375,-22.705078125,-41.19873046875
36123.847953291,-0.732666015625,0.088134765625,-0.0048828125,39.97802734375,-22.705078125,-41.19873046875
36123.848056875,-0.732666015625,0.0416259765625,-0.0048828125,39.97802734375,-22.705078125,-41.19873046875
36123.849025958,-0.732666015625,0.0416259765625,-0.0369873046875,39.97802734375,-22.705078125,-41.19873046875
36123.852477416,-0.732666015625,0.0416259765625,-0.0369873046875,-13.00048828125,-22.705078125,-41.19873046875
36123.868747541,-0.7740478515625,0.0416259765625,-0.0369873046875,-13.00048828125,-22.705078125,-41.19873046875
36123.868801166,-0.7740478515625,0.128662109375,-0.0369873046875,-13.00048828125,-22.705078125,-41.19873046875
36123.868849166,-0.7740478515625,0.128662109375,0.0074462890625,-13.00048828125,-22.705078125,-41.19873046875
36123.877952333,-0.7740478515625,0.128662109375,0.0074462890625,-13.00048828125,-1.0986328125,-41.19873046875
36123.90763675,-0.7740478515625,0.128662109375,0.0074462890625,-13.00048828125,-1.0986328125,10.19287109375
36123.918707916,-0.7991943359375,0.128662109375,0.0074462890625,-13.00048828125,-1.0986328125,10.19287109375
36123.918764583,-0.7991943359375,0.088134765625,0.0074462890625,-13.00048828125,-1.0986328125,10.19287109375
36123.918811583,-0.7991943359375,0.088134765625,0.0645751953125,-13.00048828125,-1.0986328125,10.19287109375
36123.922841208,-0.7991943359375,0.088134765625,0.0645751953125,-13.00048828125,12.5732421875,10.19287109375
36123.922972,-0.7991943359375,0.088134765625,0.0645751953125,-13.00048828125,12.5732421875,41.07666015625
36123.953624666,-0.8175048828125,0.088134765625,0.0645751953125,-13.00048828125,12.5732421875,41.07666015625
36123.982932958,-0.8175048828125,-0.0181884765625,0.0645751953125,-13.00048828125,12.5732421875,41.07666015625
36123.983099541,-0.8175048828125,-0.0181884765625,0.033447265625,-13.00048828125,12.5732421875,41.07666015625
36123.983172541,-0.8175048828125,-0.0181884765625,0.033447265625,-13.00048828125,26.2451171875,41.07666015625
36123.983587958,-0.8236083984375,-0.0181884765625,0.033447265625,-13.00048828125,26.2451171875,41.07666015625
36124.01324125,-0.8236083984375,-0.0181884765625,0.1497802734375,-13.00048828125,26.2451171875,41.07666015625
36124.028091583,-0.8236083984375,-0.0181884765625,0.1497802734375,28.9306640625,26.2451171875,41.07666015625
36124.028247416,-0.8236083984375,-0.0181884765625,0.1497802734375,28.9306640625,33.02001953125,41.07666015625
36124.02833175,-0.851806640625,-0.0181884765625,0.1497802734375,28.9306640625,33.02001953125,41.07666015625
36124.028815916,-0.851806640625,-0.0181884765625,0.1171875,28.9306640625,33.02001953125,41.07666015625
36124.058706916,-0.851806640625,-0.0181884765625,0.1171875,28.9306640625,33.63037109375,41.07666015625
36124.0587755,-0.851806640625,-0.0181884765625,0.1171875,28.9306640625,33.63037109375,68.603515625
36124.085891541,-0.7734375,-0.0181884765625,0.1171875,28.9306640625,33.63037109375,68.603515625
36124.085951875,-0.7734375,-0.19482421875,0.1171875,28.9306640625,33.63037109375,68.603515625
36124.08600325,-0.7734375,-0.19482421875,0.1810302734375,28.9306640625,33.63037109375,68.603515625
36124.102691,-0.834228515625,-0.19482421875,0.1810302734375,28.9306640625,33.63037109375,68.603515625
36124.102874083,-0.834228515625,-0.281982421875,0.1810302734375,28.9306640625,33.63037109375,68.603515625
36124.119057375,-0.834228515625,-0.281982421875,0.1761474609375,28.9306640625,33.63037109375,68.603515625
36124.119118666,-0.834228515625,-0.281982421875,0.1761474609375,18.85986328125,33.63037109375,68.603515625
36124.11917075,-0.8074951171875,-0.281982421875,0.1761474609375,18.85986328125,33.63037109375,68.603515625
36124.11922475,-0.8074951171875,-0.23291015625,0.1761474609375,18.85986328125,33.63037109375,68.603515625
36124.147784083,-0.8074951171875,-0.23291015625,0.1761474609375,17.27294921875,33.63037109375,68.603515625
36124.147924291,-0.8074951171875,-0.23291015625,0.1761474609375,17.27294921875,28.74755859375,68.603515625
36124.192959416,-0.8074951171875,-0.23291015625,0.1761474609375,17.27294921875,28.74755859375,51.513671875
36124.193108416,-0.8245849609375,-0.23291015625,0.1761474609375,17.27294921875,28.74755859375,51.513671875
36124.193623166,-0.8245849609375,-0.325927734375,0.1761474609375,17.27294921875,28.74755859375,51.513671875
36124.193689833,-0.8245849609375,-0.325927734375,0.18896484375,17.27294921875,28.74755859375,51.513671875
36124.219184083,-0.7906494140625,-0.325927734375,0.18896484375,17.27294921875,28.74755859375,51.513671875
36124.219245583,-0.7906494140625,-0.3153076171875,0.18896484375,17.27294921875,28.74755859375,51.513671875
36124.219300625,-0.7906494140625,-0.3153076171875,0.1461181640625,17.27294921875,28.74755859375,51.513671875
36124.22253025,-0.7906494140625,-0.3153076171875,0.1461181640625,17.27294921875,29.84619140625,51.513671875
36124.222641916,-0.7906494140625,-0.3153076171875,0.1461181640625,17.27294921875,29.84619140625,39.55078125
36124.237595708,-0.8006591796875,-0.3153076171875,0.1461181640625,17.27294921875,29.84619140625,39.55078125
36124.237737625,-0.8006591796875,-0.2969970703125,0.1461181640625,17.27294921875,29.84619140625,39.55078125
36124.23832675,-0.8006591796875,-0.2969970703125,0.224853515625,17.27294921875,29.84619140625,39.55078125
36124.253450291,-0.8006591796875,-0.2969970703125,0.224853515625,17.27294921875,36.9873046875,39.55078125
36124.25356325,-0.8006591796875,-0.2969970703125,0.224853515625,17.27294921875,36.9873046875,31.79931640625
36124.268965083,-0.781494140625,-0.2969970703125,0.224853515625,17.27294921875,36.9873046875,31.79931640625
36124.269025875,-0.781494140625,-0.3011474609375,0.224853515625,17.27294921875,36.9873046875,31.79931640625
36124.269079666,-0.781494140625,-0.3011474609375,0.151611328125,17.27294921875,36.9873046875,31.79931640625
36124.312935875,-0.781494140625,-0.3011474609375,0.151611328125,17.27294921875,40.6494140625,31.79931640625
36124.31310225,-0.781494140625,-0.3011474609375,0.151611328125,17.27294921875,40.6494140625,22.64404296875
36124.314472041,-0.821533203125,-0.3011474609375,0.151611328125,17.27294921875,40.6494140625,22.64404296875
36124.315947708,-0.821533203125,-0.2298583984375,0.151611328125,17.27294921875,40.6494140625,22.64404296875
36124.336030125,-0.821533203125,-0.2298583984375,0.151611328125,17.27294921875,38.0859375,22.64404296875
36124.336097625,-0.821533203125,-0.2298583984375,0.151611328125,17.27294921875,38.0859375,19.1650390625
36124.357806958,-0.8865966796875,-0.2298583984375,0.151611328125,17.27294921875,38.0859375,19.1650390625
36124.357935375,-0.8865966796875,-0.3289794921875,0.151611328125,17.27294921875,38.0859375,19.1650390625
36124.358610125,-0.8865966796875,-0.3289794921875,0.26708984375,17.27294921875,38.0859375,19.1650390625
36124.372564875,-0.8865966796875,-0.3289794921875,0.26708984375,-6.65283203125,38.0859375,19.1650390625
36124.372694375,-0.87060546875,-0.3289794921875,0.26708984375,-6.65283203125,38.0859375,19.1650390625
36124.373449708,-0.87060546875,-0.29541015625,0.26708984375,-6.65283203125,38.0859375,19.1650390625
36124.418761458,-0.87060546875,-0.29541015625,0.241455078125,-6.65283203125,38.0859375,19.1650390625
36124.418915583,-0.87060546875,-0.29541015625,0.241455078125,-6.65283203125,30.6396484375,19.1650390625
36124.419170791,-0.87060546875,-0.29541015625,0.241455078125,-6.65283203125,30.6396484375,4.69970703125
36124.420905916,-0.8834228515625,-0.29541015625,0.241455078125,-6.65283203125,30.6396484375,4.69970703125
36124.4464115,-0.8834228515625,-0.29541015625,0.2806396484375,-6.65283203125,30.6396484375,4.69970703125
36124.453082,-0.8834228515625,-0.29541015625,0.2806396484375,-36.19384765625,30.6396484375,4.69970703125
36124.453156625,-0.8834228515625,-0.29541015625,0.2806396484375,-36.19384765625,19.59228515625,4.69970703125
36124.453220791,-0.884521484375,-0.29541015625,0.2806396484375,-36.19384765625,19.59228515625,4.69970703125
36124.462539083,-0.884521484375,-0.29541015625,0.25634765625,-36.19384765625,19.59228515625,4.69970703125
36124.462741916,-0.884521484375,-0.29541015625,0.25634765625,-72.20458984375,19.59228515625,4.69970703125
36124.462863375,-0.884521484375,-0.29541015625,0.25634765625,-72.20458984375,23.25439453125,4.69970703125
36124.493357833,-0.8704833984375,-0.29541015625,0.25634765625,-72.20458984375,23.25439453125,4.69970703125
36124.493511708,-0.8704833984375,-0.2069091796875,0.25634765625,-72.20458984375,23.25439453125,4.69970703125
36124.521518041,-0.8704833984375,-0.2069091796875,0.5123291015625,-72.20458984375,23.25439453125,4.69970703125
36124.522519666,-0.8704833984375,-0.2069091796875,0.5123291015625,-72.20458984375,23.0712890625,4.69970703125
36124.55295875,-0.9573974609375,-0.2069091796875,0.5123291015625,-72.20458984375,23.0712890625,4.69970703125
36124.55316,-0.9573974609375,-0.1759033203125,0.5123291015625,-72.20458984375,23.0712890625,4.69970703125
36124.553772,-0.9573974609375,-0.1759033203125,0.5123291015625,-14.83154296875,23.0712890625,4.69970703125
36124.554001041,-0.9573974609375,-0.1759033203125,0.5123291015625,-14.83154296875,13.48876953125,4.69970703125
36124.581911458,-0.9730224609375,-0.1759033203125,0.5123291015625,-14.83154296875,13.48876953125,4.69970703125
36124.58358825,-0.9730224609375,-0.279541015625,0.5123291015625,-14.83154296875,13.48876953125,4.69970703125
36124.583812208,-0.9730224609375,-0.279541015625,0.6273193359375,-14.83154296875,13.48876953125,4.69970703125
36124.583939083,-0.9730224609375,-0.279541015625,0.6273193359375,-14.83154296875,9.6435546875,4.69970703125
36124.689047083,-1.1134033203125,-0.279541015625,0.6273193359375,-14.83154296875,9.6435546875,4.69970703125
36124.689609208,-1.1134033203125,-0.061767578125,0.6273193359375,-14.83154296875,9.6435546875,4.69970703125
36124.689821291,-1.1134033203125,-0.061767578125,0.556884765625,-14.83154296875,9.6435546875,4.69970703125
36124.689966125,-1.1134033203125,-0.061767578125,0.556884765625,-17.02880859375,9.6435546875,4.69970703125
36124.719976625,-1.1156005859375,-0.061767578125,0.556884765625,-17.02880859375,9.6435546875,4.69970703125
36124.720055875,-1.1156005859375,-0.16650390625,0.556884765625,-17.02880859375,9.6435546875,4.69970703125
36124.720126375,-1.1156005859375,-0.16650390625,0.647705078125,-17.02880859375,9.6435546875,4.69970703125
36124.736819583,-1.1156005859375,-0.16650390625,0.647705078125,-17.02880859375,1.708984375,4.69970703125
36124.736901958,-1.1156005859375,-0.16650390625,0.647705078125,-17.02880859375,1.708984375,-48.03466796875
36124.736973833,-1.205078125,-0.16650390625,0.647705078125,-17.02880859375,1.708984375,-48.03466796875
36124.737041958,-1.205078125,-0.1011962890625,0.647705078125,-17.02880859375,1.708984375,-48.03466796875
36124.75128075,-1.205078125,-0.1011962890625,0.647705078125,-17.02880859375,3.35693359375,-48.03466796875
36124.77040575,-1.205078125,-0.1011962890625,0.647705078125,-17.02880859375,3.35693359375,-25.7568359375
36124.807789875,-1.1444091796875,-0.1011962890625,0.647705078125,-17.02880859375,3.35693359375,-25.7568359375
36124.808000708,-1.1444091796875,-0.128173828125,0.647705078125,-17.02880859375,3.35693359375,-25.7568359375
36124.822669958,-1.1444091796875,-0.128173828125,0.61669921875,-17.02880859375,3.35693359375,-25.7568359375
36124.822857583,-1.1444091796875,-0.128173828125,0.61669921875,-17.02880859375,6.28662109375,-25.7568359375
36124.838795625,-1.05615234375,-0.128173828125,0.61669921875,-17.02880859375,6.28662109375,-25.7568359375
36124.839002,-1.05615234375,-0.06689453125,0.61669921875,-17.02880859375,6.28662109375,-25.7568359375
36124.839089416,-1.05615234375,-0.06689453125,0.61669921875,-12.63427734375,6.28662109375,-25.7568359375
36124.839526625,-1.05615234375,-0.06689453125,0.61669921875,-12.63427734375,4.39453125,-25.7568359375
36124.86702775,-0.952392578125,-0.06689453125,0.61669921875,-12.63427734375,4.39453125,-25.7568359375
36124.869607333,-0.952392578125,-0.0340576171875,0.61669921875,-12.63427734375,4.39453125,-25.7568359375
36124.869839958,-0.952392578125,-0.0340576171875,0.540283203125,-12.63427734375,4.39453125,-25.7568359375
36124.869949041,-0.952392578125,-0.0340576171875,0.540283203125,-13.36669921875,4.39453125,-25.7568359375
36124.897809833,-0.9200439453125,-0.0340576171875,0.540283203125,-13.36669921875,4.39453125,-25.7568359375
36124.897989416,-0.9200439453125,0.0078125,0.540283203125,-13.36669921875,4.39453125,-25.7568359375
36124.928880541,-0.9200439453125,0.0078125,0.5081787109375,-13.36669921875,4.39453125,-25.7568359375
36124.929626958,-0.9200439453125,0.0078125,0.5081787109375,-14.58740234375,4.39453125,-25.7568359375
36124.92981675,-0.874267578125,0.0078125,0.5081787109375,-14.58740234375,4.39453125,-25.7568359375
36124.92992,-0.874267578125,0.0263671875,0.5081787109375,-14.58740234375,4.39453125,-25.7568359375
36124.958288708,-0.874267578125,0.0263671875,0.5081787109375,-10.1318359375,4.39453125,-25.7568359375
36124.958414166,-0.874267578125,0.0263671875,0.5081787109375,-10.1318359375,0.91552734375,-25.7568359375
36124.958746666,-0.874267578125,0.0263671875,0.5081787109375,-10.1318359375,0.91552734375,10.19287109375
36124.972710541,-0.8978271484375,0.0263671875,0.5081787109375,-10.1318359375,0.91552734375,10.19287109375
36124.97287175,-0.8978271484375,0.0367431640625,0.5081787109375,-10.1318359375,0.91552734375,10.19287109375
36124.973475875,-0.8978271484375,0.0367431640625,0.4874267578125,-10.1318359375,0.91552734375,10.19287109375
36124.987907625,-0.8978271484375,0.0367431640625,0.4874267578125,-10.1318359375,0.91552734375,10.7421875
NEW_REP,,,,,,
36125.020365833,-0.965576171875,0.0367431640625,0.4874267578125,-10.1318359375,0.91552734375,10.7421875
36125.020449166,-0.965576171875,0.009521484375,0.4874267578125,-10.1318359375,0.91552734375,10.7421875
36125.020521791,-0.965576171875,0.009521484375,0.5692138671875,-10.1318359375,0.91552734375,10.7421875
36125.020591416,-0.965576171875,0.009521484375,0.5692138671875,1.0986328125,0.91552734375,10.7421875
36125.037250083,-1.038818359375,0.009521484375,0.5692138671875,1.0986328125,0.91552734375,10.7421875
36125.037332333,-1.038818359375,-0.0218505859375,0.5692138671875,1.0986328125,0.91552734375,10.7421875
36125.037413291,-1.038818359375,-0.0218505859375,0.6192626953125,1.0986328125,0.91552734375,10.7421875
36125.04814,-1.038818359375,-0.0218505859375,0.6192626953125,1.0986328125,-1.64794921875,10.7421875
36125.093271291,-1.038818359375,-0.0218505859375,0.6192626953125,1.0986328125,-1.64794921875,24.23095703125
36125.093502833,-1.1517333984375,-0.0218505859375,0.6192626953125,1.0986328125,-1.64794921875,24.23095703125
36125.093936291,-1.1517333984375,-0.0621337890625,0.6192626953125,1.0986328125,-1.64794921875,24.23095703125
36125.094123458,-1.1517333984375,-0.0621337890625,0.700439453125,1.0986328125,-1.64794921875,24.23095703125
36125.11986425,-1.1517333984375,-0.0621337890625,0.700439453125,1.0986328125,-8.1787109375,24.23095703125
36125.122453583,-1.1517333984375,-0.0621337890625,0.700439453125,1.0986328125,-8.1787109375,37.78076171875
36125.137652916,-1.1949462890625,-0.0621337890625,0.700439453125,1.0986328125,-8.1787109375,37.78076171875
36125.137813541,-1.1949462890625,-0.25341796875,0.700439453125,1.0986328125,-8.1787109375,37.78076171875
36125.139006791,-1.1949462890625,-0.25341796875,0.596435546875,1.0986328125,-8.1787109375,37.78076171875
36125.153875958,-1.1949462890625,-0.25341796875,0.596435546875,1.0986328125,-17.63916015625,37.78076171875
36125.153998708,-1.1949462890625,-0.25341796875,0.596435546875,1.0986328125,-17.63916015625,59.4482421875
36125.183193083,-1.200439453125,-0.25341796875,0.596435546875,1.0986328125,-17.63916015625,59.4482421875
36125.183363708,-1.200439453125,-0.3021240234375,0.596435546875,1.0986328125,-17.63916015625,59.4482421875
36125.183450416,-1.200439453125,-0.3021240234375,0.605224609375,1.0986328125,-17.63916015625,59.4482421875
36125.184087375,-1.200439453125,-0.3021240234375,0.605224609375,31.982421875,-17.63916015625,59.4482421875
36125.201947541,-1.221923828125,-0.3021240234375,0.605224609375,31.982421875,-17.63916015625,59.4482421875
36125.2019905,-1.221923828125,-0.310302734375,0.605224609375,31.982421875,-17.63916015625,59.4482421875
36125.202026666,-1.221923828125,-0.310302734375,0.6162109375,31.982421875,-17.63916015625,59.4482421875
36125.212871916,-1.221923828125,-0.310302734375,0.6162109375,31.982421875,-26.91650390625,59.4482421875
36125.212913291,-1.221923828125,-0.310302734375,0.6162109375,31.982421875,-26.91650390625,67.07763671875
36125.227459791,-1.207763671875,-0.310302734375,0.6162109375,31.982421875,-26.91650390625,67.07763671875
36125.227548083,-1.207763671875,-0.343994140625,0.6162109375,31.982421875,-26.91650390625,67.07763671875
36125.228238375,-1.207763671875,-0.343994140625,0.4912109375,31.982421875,-26.91650390625,67.07763671875
36125.242459083,-1.207763671875,-0.343994140625,0.4912109375,31.982421875,-36.7431640625,67.07763671875
36125.242562125,-1.207763671875,-0.343994140625,0.4912109375,31.982421875,-36.7431640625,66.83349609375
36125.288490333,-1.1732177734375,-0.343994140625,0.4912109375,31.982421875,-36.7431640625,66.83349609375
36125.2891215,-1.1732177734375,-0.4107666015625,0.4912109375,31.982421875,-36.7431640625,66.83349609375
36125.289659083,-1.1732177734375,-0.4107666015625,0.4197998046875,31.982421875,-36.7431640625,66.83349609375
36125.290372916,-1.1732177734375,-0.4107666015625,0.4197998046875,31.982421875,-40.22216796875,66.83349609375
36125.364188875,-1.0787353515625,-0.4107666015625,0.4197998046875,31.982421875,-40.22216796875,66.83349609375
36125.3648765,-1.0787353515625,-0.3486328125,0.4197998046875,31.982421875,-40.22216796875,66.83349609375
36125.36508025,-1.0787353515625,-0.3486328125,0.4554443359375,31.982421875,-40.22216796875,66.83349609375
36125.365304791,-1.0787353515625,-0.3486328125,0.4554443359375,-2.8076171875,-40.22216796875,66.83349609375
36125.392784166,-0.9188232421875,-0.3486328125,0.4554443359375,-2.8076171875,-40.22216796875,66.83349609375
36125.392877083,-0.9188232421875,-0.2919921875,0.4554443359375,-2.8076171875,-40.22216796875,66.83349609375
36125.394287208,-0.9188232421875,-0.2919921875,0.3270263671875,-2.8076171875,-40.22216796875,66.83349609375
36125.401876916,-0.9188232421875,-0.2919921875,0.3270263671875,-2.8076171875,-40.22216796875,18.37158203125
36125.436948041,-0.8900146484375,-0.2919921875,0.3270263671875,-2.8076171875,-40.22216796875,18.37158203125
36125.453104083,-0.8900146484375,-0.240478515625,0.3270263671875,-2.8076171875,-40.22216796875,18.37158203125
36125.456289833,-0.8900146484375,-0.240478515625,0.219482421875,-2.8076171875,-40.22216796875,18.37158203125
36125.456474375,-0.8900146484375,-0.240478515625,0.219482421875,27.89306640625,-40.22216796875,18.37158203125
36125.456508291,-0.8878173828125,-0.240478515625,0.219482421875,27.89306640625,-40.22216796875,18.37158203125
36125.485168666,-0.8878173828125,-0.240478515625,0.1220703125,27.89306640625,-40.22216796875,18.37158203125
36125.48521425,-0.8878173828125,-0.240478515625,0.1220703125,23.62060546875,-40.22216796875,18.37158203125
36125.485248625,-0.8878173828125,-0.240478515625,0.1220703125,23.62060546875,-19.6533203125,18.37158203125
36125.5582225,-0.84814453125,-0.240478515625,0.1220703125,23.62060546875,-19.6533203125,18.37158203125
36125.562792791,-0.84814453125,-0.138427734375,0.1220703125,23.62060546875,-19.6533203125,18.37158203125
36125.562913708,-0.84814453125,-0.138427734375,0.3310546875,23.62060546875,-19.6533203125,18.37158203125
36125.562960833,-0.84814453125,-0.138427734375,0.3310546875,36.2548828125,-19.6533203125,18.37158203125
36125.64898475,-0.8721923828125,-0.138427734375,0.3310546875,36.2548828125,-19.6533203125,18.37158203125
36125.64975125,-0.8721923828125,-0.1759033203125,0.3310546875,36.2548828125,-19.6533203125,18.37158203125
36125.650055541,-0.8721923828125,-0.1759033203125,0.3065185546875,36.2548828125,-19.6533203125,18.37158203125
36125.650261291,-0.8721923828125,-0.1759033203125,0.3065185546875,36.2548828125,2.74658203125,18.37158203125
36125.670876375,-0.360595703125,-0.1759033203125,0.3065185546875,36.2548828125,2.74658203125,18.37158203125
36125.6709805,-0.360595703125,-0.035888671875,0.3065185546875,36.2548828125,2.74658203125,18.37158203125
36125.671068916,-0.360595703125,-0.035888671875,0.2135009765625,36.2548828125,2.74658203125,18.37158203125
36125.678102041,-0.360595703125,-0.035888671875,0.2135009765625,36.2548828125,-8.85009765625,18.37158203125
36125.678300958,-0.360595703125,-0.035888671875,0.2135009765625,36.2548828125,-8.85009765625,-65.0634765625
36125.708305,-0.579833984375,-0.035888671875,0.2135009765625,36.2548828125,-8.85009765625,-65.0634765625
36125.708514125,-0.579833984375,-0.162353515625,0.2135009765625,36.2548828125,-8.85009765625,-65.0634765625
36125.7136805,-0.579833984375,-0.162353515625,0.12646484375,36.2548828125,-8.85009765625,-65.0634765625
36125.713782416,-0.579833984375,-0.162353515625,0.12646484375,-7.568359375,-8.85009765625,-65.0634765625
36125.75676075,-0.6119384765625,-0.162353515625,0.12646484375,-7.568359375,-8.85009765625,-65.0634765625
36125.756970041,-0.6119384765625,-0.0306396484375,0.12646484375,-7.568359375,-8.85009765625,-65.0634765625
36125.7575225,-0.6119384765625,-0.0306396484375,0.1552734375,-7.568359375,-8.85009765625,-65.0634765625
36125.757714666,-0.6119384765625,-0.0306396484375,0.1552734375,-15.68603515625,-8.85009765625,-65.0634765625
36125.783022333,-0.6795654296875,-0.0306396484375,0.1552734375,-15.68603515625,-8.85009765625,-65.0634765625
36125.783228125,-0.6795654296875,-0.1070556640625,0.1552734375,-15.68603515625,-8.85009765625,-65.0634765625
36125.783908291,-0.6795654296875,-0.1070556640625,0.10791015625,-15.68603515625,-8.85009765625,-65.0634765625
36125.784152458,-0.6795654296875,-0.1070556640625,0.10791015625,-22.8271484375,-8.85009765625,-65.0634765625
36125.803330416,-0.7467041015625,-0.1070556640625,0.10791015625,-22.8271484375,-8.85009765625,-65.0634765625
36125.803407125,-0.7467041015625,-0.0733642578125,0.10791015625,-22.8271484375,-8.85009765625,-65.0634765625
36125.803470083,-0.7467041015625,-0.0733642578125,0.14013671875,-22.8271484375,-8.85009765625,-65.0634765625
36125.827344708,-0.7467041015625,-0.0733642578125,0.14013671875,-22.8271484375,-4.0283203125,-65.0634765625
36125.843384916,-0.7467041015625,-0.0733642578125,0.14013671875,-22.8271484375,-4.0283203125,19.59228515625
36125.858253,-0.7559814453125,-0.0733642578125,0.14013671875,-22.8271484375,-4.0283203125,19.59228515625
36125.858519333,-0.7559814453125,-0.0382080078125,0.14013671875,-22.8271484375,-4.0283203125,19.59228515625
36125.858646666,-0.7559814453125,-0.0382080078125,0.14013671875,-22.8271484375,3.11279296875,19.59228515625
36125.858801291,-0.723876953125,-0.0382080078125,0.14013671875,-22.8271484375,3.11279296875,19.59228515625
36125.872680791,-0.723876953125,-0.0382080078125,0.1917724609375,-22.8271484375,3.11279296875,19.59228515625
36125.872807166,-0.723876953125,-0.0382080078125,0.1917724609375,4.82177734375,3.11279296875,19.59228515625
36125.873543208,-0.723876953125,-0.0382080078125,0.1917724609375,4.82177734375,9.82666015625,19.59228515625
36125.887707083,-0.70458984375,-0.0382080078125,0.1917724609375,4.82177734375,9.82666015625,19.59228515625
36125.887811708,-0.70458984375,-0.151611328125,0.1917724609375,4.82177734375,9.82666015625,19.59228515625
36125.888493791,-0.70458984375,-0.151611328125,0.162841796875,4.82177734375,9.82666015625,19.59228515625
36125.903429291,-0.70458984375,-0.151611328125,0.162841796875,4.82177734375,9.21630859375,19.59228515625
36125.903515375,-0.70458984375,-0.151611328125,0.162841796875,4.82177734375,9.21630859375,47.4853515625
36125.932856208,-0.767578125,-0.151611328125,0.162841796875,4.82177734375,9.21630859375,47.4853515625
36125.933013291,-0.767578125,-0.208740234375,0.162841796875,4.82177734375,9.21630859375,47.4853515625
36125.93380025,-0.767578125,-0.208740234375,0.2010498046875,4.82177734375,9.21630859375,47.4853515625
36125.935472083,-0.767578125,-0.208740234375,0.2010498046875,4.82177734375,9.46044921875,47.4853515625
36125.953276875,-0.7762451171875,-0.208740234375,0.2010498046875,4.82177734375,9.46044921875,47.4853515625
36126.023520833,-0.7762451171875,-0.1634521484375,0.2010498046875,4.82177734375,9.46044921875,47.4853515625
36126.023834833,-0.7762451171875,-0.1634521484375,0.2216796875,4.82177734375,9.46044921875,47.4853515625
36126.024263375,-0.7762451171875,-0.1634521484375,0.2216796875,4.82177734375,11.77978515625,47.4853515625
36126.024493708,-0.7762451171875,-0.1634521484375,0.2216796875,4.82177734375,11.77978515625,49.9267578125
36126.037787291,-0.7762451171875,-0.2264404296875,0.2216796875,4.82177734375,11.77978515625,49.9267578125
36126.037993416,-0.7762451171875,-0.2264404296875,0.2235107421875,4.82177734375,11.77978515625,49.9267578125
36126.068157958,-0.7762451171875,-0.2264404296875,0.2235107421875,-10.68115234375,11.77978515625,49.9267578125
36126.086519208,-0.7762451171875,-0.2264404296875,0.2235107421875,-10.68115234375,11.77978515625,47.54638671875
36126.103797708,-0.8070068359375,-0.2264404296875,0.2235107421875,-10.68115234375,11.77978515625,47.54638671875
36126.103907,-0.8070068359375,-0.1514892578125,0.2235107421875,-10.68115234375,11.77978515625,47.54638671875
36126.103999416,-0.8070068359375,-0.1514892578125,0.2235107421875,-8.30078125,11.77978515625,47.54638671875
36126.112918625,-0.8070068359375,-0.1514892578125,0.2235107421875,-8.30078125,11.77978515625,40.71044921875
36126.143528375,-0.8304443359375,-0.1514892578125,0.2235107421875,-8.30078125,11.77978515625,40.71044921875
36126.204180833,-0.8304443359375,-0.2197265625,0.2235107421875,-8.30078125,11.77978515625,40.71044921875
36126.204598458,-0.8304443359375,-0.2197265625,0.251220703125,-8.30078125,11.77978515625,40.71044921875
36126.2047225,-0.8304443359375,-0.2197265625,0.251220703125,-8.30078125,24.169921875,40.71044921875
36126.206383625,-0.9451904296875,-0.2197265625,0.251220703125,-8.30078125,24.169921875,40.71044921875
36126.233256208,-0.9451904296875,-0.2197265625,0.321533203125,-8.30078125,24.169921875,40.71044921875
36126.247756416,-0.9451904296875,-0.2197265625,0.321533203125,-7.568359375,24.169921875,40.71044921875
36126.2783945,-0.9451904296875,-0.2197265625,0.321533203125,-7.568359375,18.98193359375,40.71044921875
36126.289557458,-0.916748046875,-0.2197265625,0.321533203125,-7.568359375,18.98193359375,40.71044921875
36126.289688125,-0.916748046875,-0.3177490234375,0.321533203125,-7.568359375,18.98193359375,40.71044921875
36126.289744916,-0.916748046875,-0.3177490234375,0.321533203125,-7.568359375,7.14111328125,40.71044921875
36126.292455291,-0.90771484375,-0.3177490234375,0.321533203125,-7.568359375,7.14111328125,40.71044921875
36126.292530416,-0.90771484375,-0.2684326171875,0.321533203125,-7.568359375,7.14111328125,40.71044921875
36126.293445666,-0.90771484375,-0.2684326171875,0.3199462890625,-7.568359375,7.14111328125,40.71044921875
36126.323431833,-0.90771484375,-0.2684326171875,0.3199462890625,-7.568359375,-4.21142578125,40.71044921875
36126.323656875,-0.90771484375,-0.2684326171875,0.3199462890625,-7.568359375,-4.21142578125,0.42724609375
36126.337793791,-0.915283203125,-0.2684326171875,0.3199462890625,-7.568359375,-4.21142578125,0.42724609375
36126.353193333,-0.915283203125,-0.2713623046875,0.3199462890625,-7.568359375,-4.21142578125,0.42724609375
36126.3532735,-0.915283203125,-0.2713623046875,0.2777099609375,-7.568359375,-4.21142578125,0.42724609375
36126.370231083,-1.0284423828125,-0.2713623046875,0.2777099609375,-7.568359375,-4.21142578125,0.42724609375
36126.370309375,-1.0284423828125,-0.2489013671875,0.2777099609375,-7.568359375,-4.21142578125,0.42724609375
36126.370378958,-1.0284423828125,-0.2489013671875,0.474365234375,-7.568359375,-4.21142578125,0.42724609375
36126.398201958,-1.002685546875,-0.2489013671875,0.474365234375,-7.568359375,-4.21142578125,0.42724609375
36126.398322166,-1.002685546875,-0.2225341796875,0.474365234375,-7.568359375,-4.21142578125,0.42724609375
36126.399086833,-1.002685546875,-0.2225341796875,0.388427734375,-7.568359375,-4.21142578125,0.42724609375
36126.399283916,-1.002685546875,-0.2225341796875,0.388427734375,-7.568359375,1.5869140625,0.42724609375
36126.420300583,-1.0125732421875,-0.2225341796875,0.388427734375,-7.568359375,1.5869140625,0.42724609375
36126.420379958,-1.0125732421875,-0.4130859375,0.388427734375,-7.568359375,1.5869140625,0.42724609375
36126.420449875,-1.0125732421875,-0.4130859375,0.3160400390625,-7.568359375,1.5869140625,0.42724609375
36126.428014875,-1.0125732421875,-0.4130859375,0.3160400390625,-7.568359375,-1.0986328125,0.42724609375
36126.428155666,-1.0125732421875,-0.4130859375,0.3160400390625,-7.568359375,-1.0986328125,-23.98681640625
36126.442867375,-1.146728515625,-0.4130859375,0.3160400390625,-7.568359375,-1.0986328125,-23.98681640625
36126.442966625,-1.146728515625,-0.3807373046875,0.3160400390625,-7.568359375,-1.0986328125,-23.98681640625
36126.443537,-1.146728515625,-0.3807373046875,0.280517578125,-7.568359375,-1.0986328125,-23.98681640625
36126.457872875,-1.146728515625,-0.3807373046875,0.280517578125,-7.568359375,8.1787109375,-23.98681640625
36126.458042708,-1.146728515625,-0.3807373046875,0.280517578125,-7.568359375,8.1787109375,-28.80859375
36126.472718791,-1.0748291015625,-0.3807373046875,0.280517578125,-7.568359375,8.1787109375,-28.80859375
36126.472890416,-1.0748291015625,-0.3045654296875,0.280517578125,-7.568359375,8.1787109375,-28.80859375
36126.473377958,-1.0748291015625,-0.3045654296875,0.542236328125,-7.568359375,8.1787109375,-28.80859375
36126.488304125,-1.0748291015625,-0.3045654296875,0.542236328125,-7.568359375,15.5029296875,-28.80859375
36126.490058583,-1.0748291015625,-0.3045654296875,0.542236328125,-7.568359375,15.5029296875,-41.3818359375
36126.503093083,-1.16796875,-0.3045654296875,0.542236328125,-7.568359375,15.5029296875,-41.3818359375
36126.503173,-1.16796875,-0.314208984375,0.542236328125,-7.568359375,15.5029296875,-41.3818359375
36126.503464375,-1.16796875,-0.314208984375,0.53466796875,-7.568359375,15.5029296875,-41.3818359375
36126.525328166,-1.16796875,-0.314208984375,0.53466796875,-7.568359375,12.26806640625,-41.3818359375
36126.525456291,-1.16796875,-0.314208984375,0.53466796875,-7.568359375,12.26806640625,-39.73388671875
36126.53527225,-1.1837158203125,-0.314208984375,0.53466796875,-7.568359375,12.26806640625,-39.73388671875
36126.535315583,-1.1837158203125,-0.3583984375,0.53466796875,-7.568359375,12.26806640625,-39.73388671875
36126.535354291,-1.1837158203125,-0.3583984375,0.4893798828125,-7.568359375,12.26806640625,-39.73388671875
36126.562744666,-1.1837158203125,-0.3583984375,0.4893798828125,-7.568359375,10.31494140625,-39.73388671875
36126.578084458,-1.1837158203125,-0.3583984375,0.4893798828125,-7.568359375,10.31494140625,-35.400390625
36126.578257708,-1.1937255859375,-0.3583984375,0.4893798828125,-7.568359375,10.31494140625,-35.400390625
36126.579372458,-1.1937255859375,-0.34033203125,0.4893798828125,-7.568359375,10.31494140625,-35.400390625
36126.57956175,-1.1937255859375,-0.34033203125,0.4893798828125,-7.568359375,9.09423828125,-35.400390625
36126.607935375,-1.1436767578125,-0.34033203125,0.4893798828125,-7.568359375,9.09423828125,-35.400390625
36126.612261666,-1.1436767578125,-0.2147216796875,0.4893798828125,-7.568359375,9.09423828125,-35.400390625
36126.627852958,-1.1436767578125,-0.2147216796875,0.508544921875,-7.568359375,9.09423828125,-35.400390625
36126.683786333,-1.1436767578125,-0.2147216796875,0.508544921875,4.08935546875,9.09423828125,-35.400390625
36126.704426416,-1.096923828125,-0.2147216796875,0.508544921875,4.08935546875,9.09423828125,-35.400390625
36126.704542333,-1.096923828125,-0.31005859375,0.508544921875,4.08935546875,9.09423828125,-35.400390625
36126.70464075,-1.096923828125,-0.31005859375,0.508544921875,18.310546875,9.09423828125,-35.400390625
36126.704734875,-1.096923828125,-0.31005859375,0.508544921875,18.310546875,9.09423828125,-16.78466796875
36126.727304666,-0.9549560546875,-0.31005859375,0.508544921875,18.310546875,9.09423828125,-16.78466796875
36126.729717291,-0.9549560546875,-0.0916748046875,0.508544921875,18.310546875,9.09423828125,-16.78466796875
36126.7299755,-0.9549560546875,-0.0916748046875,0.4403076171875,18.310546875,9.09423828125,-16.78466796875
36126.730105958,-0.9549560546875,-0.0916748046875,0.4403076171875,-2.01416015625,9.09423828125,-16.78466796875
36126.758308125,-0.90771484375,-0.0916748046875,0.4403076171875,-2.01416015625,9.09423828125,-16.78466796875
36126.762704958,-0.90771484375,-0.1185302734375,0.4403076171875,-2.01416015625,9.09423828125,-16.78466796875
36126.7628415,-0.90771484375,-0.1185302734375,0.400390625,-2.01416015625,9.09423828125,-16.78466796875
36126.762928875,-0.90771484375,-0.1185302734375,0.400390625,-2.01416015625,0.732421875,-16.78466796875
36126.772809666,-0.906982421875,-0.1185302734375,0.400390625,-2.01416015625,0.732421875,-16.78466796875
36126.7860375,-0.906982421875,-0.1259765625,0.400390625,-2.01416015625,0.732421875,-16.78466796875
36126.786259291,-0.906982421875,-0.1259765625,0.37548828125,-2.01416015625,0.732421875,-16.78466796875
36126.788056416,-0.906982421875,-0.1259765625,0.37548828125,-2.01416015625,-2.197265625,-16.78466796875
36126.78819675,-0.906982421875,-0.1259765625,0.37548828125,-2.01416015625,-2.197265625,5.92041015625
36126.833515458,-0.91064453125,-0.1259765625,0.37548828125,-2.01416015625,-2.197265625,5.92041015625
36126.848479958,-0.91064453125,-0.08935546875,0.37548828125,-2.01416015625,-2.197265625,5.92041015625
36126.848694,-0.91064453125,-0.08935546875,0.4515380859375,-2.01416015625,-2.197265625,5.92041015625
36126.848751958,-0.91064453125,-0.08935546875,0.4515380859375,-16.90673828125,-2.197265625,5.92041015625
36126.848841375,-0.9205322265625,-0.08935546875,0.4515380859375,-16.90673828125,-2.197265625,5.92041015625
36126.876850125,-0.9205322265625,-0.08935546875,0.433837890625,-16.90673828125,-2.197265625,5.92041015625
NEW_REP,,,,,,
36126.892930583,-0.9205322265625,-0.08935546875,0.433837890625,0.0,-2.197265625,5.92041015625
36126.90647925,-0.9205322265625,-0.08935546875,0.433837890625,0.0,-0.30517578125,5.92041015625
36126.907524083,-0.9876708984375,-0.08935546875,0.433837890625,0.0,-0.30517578125,5.92041015625
36126.952074791,-0.9876708984375,-0.1717529296875,0.433837890625,0.0,-0.30517578125,5.92041015625
36126.982831583,-0.9876708984375,-0.1717529296875,0.433837890625,-15.93017578125,-0.30517578125,5.92041015625
36127.016061333,-0.9876708984375,-0.1717529296875,0.433837890625,-15.93017578125,-0.30517578125,2.9296875
36127.05752825,-1.0970458984375,-0.1717529296875,0.433837890625,-15.93017578125,-0.30517578125,2.9296875
36127.059304208,-1.0970458984375,-0.1717529296875,0.5670166015625,-15.93017578125,-0.30517578125,2.9296875
36127.103871833,-1.0970458984375,-0.1717529296875,0.5670166015625,-15.93017578125,-1.5869140625,2.9296875
36127.134296041,-1.114501953125,-0.1717529296875,0.5670166015625,-15.93017578125,-1.5869140625,2.9296875
36127.135062875,-1.114501953125,-0.1717529296875,0.531982421875,-15.93017578125,-1.5869140625,2.9296875
36127.135272625,-1.114501953125,-0.1717529296875,0.531982421875,13.85498046875,-1.5869140625,2.9296875
36127.135393625,-1.114501953125,-0.1717529296875,0.531982421875,13.85498046875,-1.5869140625,23.193359375
36127.148551958,-1.1798095703125,-0.1717529296875,0.531982421875,13.85498046875,-1.5869140625,23.193359375
36127.148853208,-1.1798095703125,-0.2139892578125,0.531982421875,13.85498046875,-1.5869140625,23.193359375
36127.149697708,-1.1798095703125,-0.2139892578125,0.4691162109375,13.85498046875,-1.5869140625,23.193359375
36127.193583208,-1.1798095703125,-0.2139892578125,0.4691162109375,13.85498046875,-1.5869140625,28.6865234375
36127.2039675,-1.282470703125,-0.2139892578125,0.4691162109375,13.85498046875,-1.5869140625,28.6865234375
36127.2041215,-1.282470703125,-0.294677734375,0.4691162109375,13.85498046875,-1.5869140625,28.6865234375
36127.238287375,-1.282470703125,-0.294677734375,0.3907470703125,13.85498046875,-1.5869140625,28.6865234375
36127.238503,-1.282470703125,-0.294677734375,0.3907470703125,13.85498046875,-2.01416015625,28.6865234375
36127.240073875,-1.282470703125,-0.294677734375,0.3907470703125,13.85498046875,-2.01416015625,23.681640625
36127.240252541,-1.09375,-0.294677734375,0.3907470703125,13.85498046875,-2.01416015625,23.681640625
36127.2689165,-1.09375,-0.294677734375,0.47021484375,13.85498046875,-2.01416015625,23.681640625
36127.2977435,-1.09375,-0.294677734375,0.47021484375,4.638671875,-2.01416015625,23.681640625
36127.298879666,-1.09375,-0.294677734375,0.47021484375,4.638671875,3.5400390625,23.681640625
36127.299110708,-1.0487060546875,-0.294677734375,0.47021484375,4.638671875,3.5400390625,23.681640625
36127.299282041,-1.0487060546875,-0.294677734375,0.3905029296875,4.638671875,3.5400390625,23.681640625
36127.321071791,-1.0487060546875,-0.294677734375,0.3905029296875,4.638671875,-0.30517578125,23.681640625
36127.321171166,-1.0487060546875,-0.294677734375,0.3905029296875,4.638671875,-0.30517578125,-10.7421875
36127.344205125,-0.8253173828125,-0.294677734375,0.3905029296875,4.638671875,-0.30517578125,-10.7421875
36127.344505375,-0.8253173828125,0.0797119140625,0.3905029296875,4.638671875,-0.30517578125,-10.7421875
36127.344592833,-0.8253173828125,0.0797119140625,0.3922119140625,4.638671875,-0.30517578125,-10.7421875
36127.344721333,-0.8253173828125,0.0797119140625,0.3922119140625,4.638671875,-18.12744140625,-10.7421875
36127.389992583,-0.7933349609375,0.0797119140625,0.3922119140625,4.638671875,-18.12744140625,-10.7421875
36127.390434666,-0.7933349609375,0.027587890625,0.3922119140625,4.638671875,-18.12744140625,-10.7421875
36127.390561333,-0.7933349609375,0.027587890625,0.2974853515625,4.638671875,-18.12744140625,-10.7421875
36127.390902458,-0.7933349609375,0.027587890625,0.2974853515625,-0.8544921875,-18.12744140625,-10.7421875
36127.420350166,-0.7547607421875,0.027587890625,0.2974853515625,-0.8544921875,-18.12744140625,-10.7421875
36127.42043725,-0.7547607421875,0.1490478515625,0.2974853515625,-0.8544921875,-18.12744140625,-10.7421875
36127.420511458,-0.7547607421875,0.1490478515625,0.38671875,-0.8544921875,-18.12744140625,-10.7421875
36127.420585166,-0.7547607421875,0.1490478515625,0.38671875,-0.8544921875,-29.9072265625,-10.7421875
36127.420656833,-0.7547607421875,0.1490478515625,0.38671875,-0.8544921875,-29.9072265625,-33.203125
36127.463506625,-0.806640625,0.1490478515625,0.38671875,-0.8544921875,-29.9072265625,-33.203125
36127.463781541,-0.806640625,0.0299072265625,0.38671875,-0.8544921875,-29.9072265625,-33.203125
36127.463977375,-0.806640625,0.0299072265625,0.3133544921875,-0.8544921875,-29.9072265625,-33.203125
36127.464147958,-0.806640625,0.0299072265625,0.3133544921875,-0.8544921875,-34.85107421875,-33.203125
36127.486628333,-0.76171875,0.0299072265625,0.3133544921875,-0.8544921875,-34.85107421875,-33.203125
36127.486711208,-0.76171875,-0.0032958984375,0.3133544921875,-0.8544921875,-34.85107421875,-33.203125
36127.4867835,-0.76171875,-0.0032958984375,0.283447265625,-0.8544921875,-34.85107421875,-33.203125
36127.522928083,-0.76171875,-0.0032958984375,0.283447265625,-0.8544921875,-32.65380859375,-33.203125
36127.537772,-0.76171875,-0.0032958984375,0.283447265625,-0.8544921875,-32.65380859375,-33.5693359375
36127.53797525,-0.719970703125,-0.0032958984375,0.283447265625,-0.8544921875,-32.65380859375,-33.5693359375
36127.554432791,-0.719970703125,-0.028564453125,0.283447265625,-0.8544921875,-32.65380859375,-33.5693359375
36127.55459375,-0.719970703125,-0.028564453125,0.283447265625,-0.8544921875,-30.70068359375,-33.5693359375
36127.570540333,-0.4527587890625,-0.028564453125,0.283447265625,-0.8544921875,-30.70068359375,-33.5693359375
36127.598227208,-0.4527587890625,0.091064453125,0.283447265625,-0.8544921875,-30.70068359375,-33.5693359375
36127.598324166,-0.4527587890625,0.091064453125,0.3006591796875,-0.8544921875,-30.70068359375,-33.5693359375
36127.599145625,-0.4527587890625,0.091064453125,0.3006591796875,-0.8544921875,-30.70068359375,-53.3447265625
36127.599314,-0.621826171875,0.091064453125,0.3006591796875,-0.8544921875,-30.70068359375,-53.3447265625
36127.628482458,-0.621826171875,0.091064453125,0.3006591796875,-8.544921875,-30.70068359375,-53.3447265625
36127.628729083,-0.621826171875,0.091064453125,0.3006591796875,-8.544921875,-21.728515625,-53.3447265625
36127.628817541,-0.621826171875,0.091064453125,0.3006591796875,-8.544921875,-21.728515625,-55.419921875
36127.642803833,-0.52880859375,0.091064453125,0.3006591796875,-8.544921875,-21.728515625,-55.419921875
36127.65827775,-0.52880859375,0.091064453125,0.3006591796875,28.6865234375,-21.728515625,-55.419921875
36127.658464541,-0.52880859375,0.091064453125,0.3006591796875,28.6865234375,-6.7138671875,-55.419921875
36127.658845625,-0.52880859375,0.091064453125,0.3006591796875,28.6865234375,-6.7138671875,-36.376953125
36127.660957166,-0.694091796875,0.091064453125,0.3006591796875,28.6865234375,-6.7138671875,-36.376953125
36127.67294025,-0.694091796875,0.091064453125,0.3006591796875,4.08935546875,-6.7138671875,-36.376953125
36127.673091291,-0.694091796875,0.091064453125,0.3006591796875,4.08935546875,-4.5166015625,-36.376953125
36127.67360225,-0.694091796875,0.091064453125,0.3006591796875,4.08935546875,-4.5166015625,-18.798828125
36127.732461583,-0.75634765625,0.091064453125,0.3006591796875,4.08935546875,-4.5166015625,-18.798828125
36127.738204625,-0.75634765625,-0.086181640625,0.3006591796875,4.08935546875,-4.5166015625,-18.798828125
36127.738306583,-0.75634765625,-0.086181640625,0.17529296875,4.08935546875,-4.5166015625,-18.798828125
36127.738406,-0.75634765625,-0.086181640625,0.17529296875,-5.9814453125,-4.5166015625,-18.798828125
36127.762928166,-0.7276611328125,-0.086181640625,0.17529296875,-5.9814453125,-4.5166015625,-18.798828125
36127.778352625,-0.7276611328125,-0.043212890625,0.17529296875,-5.9814453125,-4.5166015625,-18.798828125
36127.778557375,-0.7276611328125,-0.043212890625,0.2535400390625,-5.9814453125,-4.5166015625,-18.798828125
36127.77924975,-0.7276611328125,-0.043212890625,0.2535400390625,-5.9814453125,10.43701171875,-18.798828125
36127.780821958,-0.77099609375,-0.043212890625,0.2535400390625,-5.9814453125,10.43701171875,-18.798828125
36127.823553916,-0.77099609375,-0.043212890625,0.250244140625,-5.9814453125,10.43701171875,-18.798828125
36127.823835625,-0.77099609375,-0.043212890625,0.250244140625,14.83154296875,10.43701171875,-18.798828125
36127.852178208,-0.77099609375,-0.043212890625,0.250244140625,14.83154296875,13.61083984375,-18.798828125
36127.853866916,-0.7440185546875,-0.043212890625,0.250244140625,14.83154296875,13.61083984375,-18.798828125
36127.886714083,-0.7440185546875,-0.043212890625,0.230712890625,14.83154296875,13.61083984375,-18.798828125
36127.886791208,-0.7440185546875,-0.043212890625,0.230712890625,0.91552734375,13.61083984375,-18.798828125
36127.886861833,-0.7440185546875,-0.043212890625,0.230712890625,0.91552734375,13.61083984375,38.02490234375
36127.88693025,-0.7315673828125,-0.043212890625,0.230712890625,0.91552734375,13.61083984375,38.02490234375
36127.886998083,-0.7315673828125,0.0517578125,0.230712890625,0.91552734375,13.61083984375,38.02490234375
36127.8870645,-0.7315673828125,0.0517578125,0.315673828125,0.91552734375,13.61083984375,38.02490234375
36127.903563666,-0.7315673828125,0.0517578125,0.315673828125,0.91552734375,9.58251953125,38.02490234375
36127.903641375,-0.7315673828125,0.0517578125,0.315673828125,0.91552734375,9.58251953125,49.13330078125
36127.928145083,-0.8221435546875,0.0517578125,0.315673828125,0.91552734375,9.58251953125,49.13330078125
36127.928314708,-0.8221435546875,0.021240234375,0.315673828125,0.91552734375,9.58251953125,49.13330078125
36127.928943875,-0.8221435546875,0.021240234375,0.3043212890625,0.91552734375,9.58251953125,49.13330078125
36127.94317725,-0.8221435546875,0.021240234375,0.3043212890625,0.91552734375,10.7421875,49.13330078125
36127.943332916,-0.7359619140625,0.021240234375,0.3043212890625,0.91552734375,10.7421875,49.13330078125
36127.944503666,-0.7359619140625,-0.079833984375,0.3043212890625,0.91552734375,10.7421875,49.13330078125
36127.944710041,-0.7359619140625,-0.079833984375,0.2308349609375,0.91552734375,10.7421875,49.13330078125
36127.975014166,-0.7359619140625,-0.079833984375,0.2308349609375,0.91552734375,15.07568359375,49.13330078125
36127.978954041,-0.7359619140625,-0.079833984375,0.2308349609375,0.91552734375,15.07568359375,52.79541015625
36128.003307458,-0.8121337890625,-0.079833984375,0.2308349609375,0.91552734375,15.07568359375,52.79541015625
36128.003598791,-0.8121337890625,-0.05615234375,0.2308349609375,0.91552734375,15.07568359375,52.79541015625
36128.0236835,-0.8121337890625,-0.05615234375,0.2838134765625,0.91552734375,15.07568359375,52.79541015625
36128.023951875,-0.8973388671875,-0.05615234375,0.2838134765625,0.91552734375,15.07568359375,52.79541015625
36128.024056666,-0.8973388671875,-0.0794677734375,0.2838134765625,0.91552734375,15.07568359375,52.79541015625
36128.024127208,-0.8973388671875,-0.0794677734375,0.322021484375,0.91552734375,15.07568359375,52.79541015625
36128.036531666,-0.8973388671875,-0.0794677734375,0.322021484375,0.91552734375,15.07568359375,42.29736328125
36128.108996708,-0.8472900390625,-0.0794677734375,0.322021484375,0.91552734375,15.07568359375,42.29736328125
36128.109365875,-0.8472900390625,-0.1519775390625,0.322021484375,0.91552734375,15.07568359375,42.29736328125
36128.109466208,-0.8472900390625,-0.1519775390625,0.268310546875,0.91552734375,15.07568359375,42.29736328125
36128.114572791,-0.8472900390625,-0.1519775390625,0.268310546875,0.91552734375,9.21630859375,42.29736328125
36128.168365125,-0.9713134765625,-0.1519775390625,0.268310546875,0.91552734375,9.21630859375,42.29736328125
36128.168620916,-0.9713134765625,-0.1441650390625,0.268310546875,0.91552734375,9.21630859375,42.29736328125
36128.16924575,-0.9713134765625,-0.1441650390625,0.31201171875,0.91552734375,9.21630859375,42.29736328125
36128.186547166,-0.9713134765625,-0.1441650390625,0.31201171875,0.91552734375,9.33837890625,42.29736328125
36128.21412375,-1.0084228515625,-0.1441650390625,0.31201171875,0.91552734375,9.33837890625,42.29736328125
36128.21998475,-1.0084228515625,-0.154541015625,0.31201171875,0.91552734375,9.33837890625,42.29736328125
36128.220106958,-1.0084228515625,-0.154541015625,0.310791015625,0.91552734375,9.33837890625,42.29736328125
36128.228031958,-1.0084228515625,-0.154541015625,0.310791015625,0.91552734375,11.41357421875,42.29736328125
36128.228183125,-0.986083984375,-0.154541015625,0.310791015625,0.91552734375,11.41357421875,42.29736328125
36128.228729,-0.986083984375,-0.1328125,0.310791015625,0.91552734375,11.41357421875,42.29736328125
36128.228864958,-0.986083984375,-0.1328125,0.3260498046875,0.91552734375,11.41357421875,42.29736328125
36128.243032916,-0.986083984375,-0.1328125,0.3260498046875,0.91552734375,15.13671875,42.29736328125
36128.27282075,-0.986083984375,-0.1328125,0.3260498046875,0.91552734375,15.13671875,-2.3193359375
36128.273021666,-1.036376953125,-0.1328125,0.3260498046875,0.91552734375,15.13671875,-2.3193359375
36128.288109791,-1.036376953125,-0.13134765625,0.3260498046875,0.91552734375,15.13671875,-2.3193359375
36128.288278041,-1.036376953125,-0.13134765625,0.308349609375,0.91552734375,15.13671875,-2.3193359375
36128.317862791,-1.036376953125,-0.13134765625,0.308349609375,0.91552734375,18.37158203125,-2.3193359375
36128.318068625,-1.036376953125,-0.13134765625,0.308349609375,0.91552734375,18.37158203125,-5.67626953125
36128.336712416,-0.99951171875,-0.13134765625,0.308349609375,0.91552734375,18.37158203125,-5.67626953125
36128.33679225,-0.99951171875,-0.182861328125,0.308349609375,0.91552734375,18.37158203125,-5.67626953125
36128.336863083,-0.99951171875,-0.182861328125,0.308349609375,0.91552734375,22.0947265625,-5.67626953125
36128.336932083,-0.99951171875,-0.182861328125,0.308349609375,0.91552734375,22.0947265625,-12.75634765625
36128.362413791,-0.992919921875,-0.182861328125,0.308349609375,0.91552734375,22.0947265625,-12.75634765625
36128.37018525,-0.992919921875,-0.1884765625,0.308349609375,0.91552734375,22.0947265625,-12.75634765625
36128.370266,-0.992919921875,-0.1884765625,0.290283203125,0.91552734375,22.0947265625,-12.75634765625
36128.370338875,-0.992919921875,-0.1884765625,0.290283203125,-8.9111328125,22.0947265625,-12.75634765625
36128.37910625,-1.019287109375,-0.1884765625,0.290283203125,-8.9111328125,22.0947265625,-12.75634765625
36128.386423416,-1.019287109375,-0.2022705078125,0.290283203125,-8.9111328125,22.0947265625,-12.75634765625
36128.408063125,-1.019287109375,-0.2022705078125,0.3973388671875,-8.9111328125,22.0947265625,-12.75634765625
36128.408228,-1.019287109375,-0.2022705078125,0.3973388671875,-8.9111328125,20.32470703125,-12.75634765625
36128.438283458,-1.019287109375,-0.2022705078125,0.3973388671875,-8.9111328125,20.32470703125,-24.10888671875
36128.438410083,-0.9862060546875,-0.2022705078125,0.3973388671875,-8.9111328125,20.32470703125,-24.10888671875
36128.439623,-0.9862060546875,-0.1021728515625,0.3973388671875,-8.9111328125,20.32470703125,-24.10888671875
36128.439798541,-0.9862060546875,-0.1021728515625,0.405029296875,-8.9111328125,20.32470703125,-24.10888671875
36128.468223583,-0.9862060546875,-0.1021728515625,0.405029296875,-8.9111328125,20.32470703125,-24.90234375
36128.497382125,-1.03857421875,-0.1021728515625,0.405029296875,-8.9111328125,20.32470703125,-24.90234375
36128.589726583,-1.03857421875,-0.1715087890625,0.405029296875,-8.9111328125,20.32470703125,-24.90234375
36128.590403708,-1.03857421875,-0.1715087890625,0.4832763671875,-8.9111328125,20.32470703125,-24.90234375
36128.590624833,-1.03857421875,-0.1715087890625,0.4832763671875,-8.9111328125,13.00048828125,-24.90234375
36128.59145775,-0.9454345703125,-0.1715087890625,0.4832763671875,-8.9111328125,13.00048828125,-24.90234375
36128.620179041,-0.9454345703125,-0.1715087890625,0.5391845703125,-8.9111328125,13.00048828125,-24.90234375
36128.620259625,-0.9454345703125,-0.1715087890625,0.5391845703125,-35.33935546875,13.00048828125,-24.90234375
36128.620336416,-0.9454345703125,-0.1715087890625,0.5391845703125,-35.33935546875,5.0048828125,-24.90234375
36128.620404666,-1.1551513671875,-0.1715087890625,0.5391845703125,-35.33935546875,5.0048828125,-24.90234375
36128.620476,-1.1551513671875,-0.1082763671875,0.5391845703125,-35.33935546875,5.0048828125,-24.90234375
36128.647786833,-1.1551513671875,-0.1082763671875,0.5391845703125,-35.33935546875,-15.93017578125,-24.90234375
36128.652868958,-1.1551513671875,-0.1082763671875,0.5391845703125,-35.33935546875,-15.93017578125,-23.8037109375
36128.678298916,-1.1416015625,-0.1082763671875,0.5391845703125,-35.33935546875,-15.93017578125,-23.8037109375
36128.767761458,-1.1416015625,-0.0628662109375,0.5391845703125,-35.33935546875,-15.93017578125,-23.8037109375
36128.783325083,-1.1416015625,-0.0628662109375,0.52978515625,-35.33935546875,-15.93017578125,-23.8037109375
36128.783583666,-1.07080078125,-0.0628662109375,0.52978515625,-35.33935546875,-15.93017578125,-23.8037109375
36128.784285333,-1.07080078125,-0.050537109375,0.52978515625,-35.33935546875,-15.93017578125,-23.8037109375
36128.784518083,-1.07080078125,-0.050537109375,0.52978515625,-35.33935546875,-7.87353515625,-23.8037109375
36128.873975208,-0.8990478515625,-0.050537109375,0.52978515625,-35.33935546875,-7.87353515625,-23.8037109375
NEW_REP,,,,,,
36128.892760583,-0.8990478515625,0.0416259765625,0.52978515625,-35.33935546875,-7.87353515625,-23.8037109375
36128.892978625,-0.8990478515625,0.0416259765625,0.3790283203125,-35.33935546875,-7.87353515625,-23.8037109375
36128.893098416,-0.8990478515625,0.0416259765625,0.3790283203125,-35.33935546875,1.64794921875,-23.8037109375
36128.893208125,-0.9058837890625,0.0416259765625,0.3790283203125,-35.33935546875,1.64794921875,-23.8037109375
36128.903022375,-0.9058837890625,0.0416259765625,0.37744140625,-35.33935546875,1.64794921875,-23.8037109375
36128.919971875,-0.9058837890625,0.0416259765625,0.37744140625,-15.9912109375,1.64794921875,-23.8037109375
36128.920243375,-0.9058837890625,0.0416259765625,0.37744140625,-15.9912109375,-1.15966796875,-23.8037109375
36128.936942708,-0.9569091796875,0.0416259765625,0.37744140625,-15.9912109375,-1.15966796875,-23.8037109375
36128.937028875,-0.9569091796875,0.0762939453125,0.37744140625,-15.9912109375,-1.15966796875,-23.8037109375
36128.937103958,-0.9569091796875,0.0762939453125,0.454833984375,-15.9912109375,-1.15966796875,-23.8037109375
36128.953519458,-0.9569091796875,0.0762939453125,0.454833984375,5.43212890625,-1.15966796875,-23.8037109375
36128.962996791,-0.9735107421875,0.0762939453125,0.454833984375,5.43212890625,-1.15966796875,-23.8037109375
36128.963168916,-0.9735107421875,0.0894775390625,0.454833984375,5.43212890625,-1.15966796875,-23.8037109375
36128.969774916,-0.9735107421875,0.0894775390625,0.46044921875,5.43212890625,-1.15966796875,-23.8037109375
36128.978918083,-0.9735107421875,0.0894775390625,0.46044921875,5.43212890625,0.3662109375,-23.8037109375
36128.994601916,-0.9735107421875,0.0894775390625,0.46044921875,5.43212890625,0.3662109375,7.9345703125
36129.008139,-1.05859375,0.0894775390625,0.46044921875,5.43212890625,0.3662109375,7.9345703125
36129.022958083,-1.05859375,0.046142578125,0.46044921875,5.43212890625,0.3662109375,7.9345703125
36129.023113583,-1.05859375,0.046142578125,0.4901123046875,5.43212890625,0.3662109375,7.9345703125
36129.023898833,-1.05859375,0.046142578125,0.4901123046875,5.43212890625,-4.94384765625,7.9345703125
36129.024046,-1.05859375,0.046142578125,0.4901123046875,5.43212890625,-4.94384765625,21.728515625
36129.068230541,-1.1197509765625,0.046142578125,0.4901123046875,5.43212890625,-4.94384765625,21.728515625
36129.068425791,-1.1197509765625,0.002685546875,0.4901123046875,5.43212890625,-4.94384765625,21.728515625
36129.068887375,-1.1197509765625,0.002685546875,0.5185546875,5.43212890625,-4.94384765625,21.728515625
36129.069066875,-1.1197509765625,0.002685546875,0.5185546875,12.51220703125,-4.94384765625,21.728515625
36129.086839041,-1.1578369140625,0.002685546875,0.5185546875,12.51220703125,-4.94384765625,21.728515625
36129.086917833,-1.1578369140625,-0.0191650390625,0.5185546875,12.51220703125,-4.94384765625,21.728515625
36129.086988916,-1.1578369140625,-0.0191650390625,0.5716552734375,12.51220703125,-4.94384765625,21.728515625
36129.103488041,-1.1578369140625,-0.0191650390625,0.5716552734375,12.51220703125,-8.48388671875,21.728515625
36129.103565541,-1.1578369140625,-0.0191650390625,0.5716552734375,12.51220703125,-8.48388671875,44.0673828125
36129.142900625,-1.2327880859375,-0.0191650390625,0.5716552734375,12.51220703125,-8.48388671875,44.0673828125
36129.143112708,-1.2327880859375,-0.1953125,0.5716552734375,12.51220703125,-8.48388671875,44.0673828125
36129.187988083,-1.2327880859375,-0.1953125,0.5172119140625,12.51220703125,-8.48388671875,44.0673828125
36129.203198583,-1.2327880859375,-0.1953125,0.5172119140625,60.60791015625,-8.48388671875,44.0673828125
36129.203449375,-1.2386474609375,-0.1953125,0.5172119140625,60.60791015625,-8.48388671875,44.0673828125
36129.204173958,-1.2386474609375,-0.2388916015625,0.5172119140625,60.60791015625,-8.48388671875,44.0673828125
36129.204396583,-1.2386474609375,-0.2388916015625,0.5172119140625,48.76708984375,-8.48388671875,44.0673828125
36129.263703416,-1.2386474609375,-0.2388916015625,0.5172119140625,48.76708984375,-8.48388671875,65.5517578125
36129.263940666,-1.2081298828125,-0.2388916015625,0.5172119140625,48.76708984375,-8.48388671875,65.5517578125
36129.264561833,-1.2081298828125,-0.3126220703125,0.5172119140625,48.76708984375,-8.48388671875,65.5517578125
36129.269479708,-1.2081298828125,-0.3126220703125,0.396484375,48.76708984375,-8.48388671875,65.5517578125
36129.293220916,-1.2081298828125,-0.3126220703125,0.396484375,48.76708984375,-19.34814453125,65.5517578125
36129.293365625,-1.2081298828125,-0.3126220703125,0.396484375,48.76708984375,-19.34814453125,64.75830078125
36129.322033166,-1.073486328125,-0.3126220703125,0.396484375,48.76708984375,-19.34814453125,64.75830078125
36129.323911083,-1.073486328125,-0.3126220703125,0.396484375,48.76708984375,-19.34814453125,64.75830078125
36129.324249375,-1.073486328125,-0.3126220703125,0.39697265625,48.76708984375,-19.34814453125,64.75830078125
36129.324355375,-1.0640869140625,-0.3126220703125,0.39697265625,48.76708984375,-19.34814453125,64.75830078125
36129.337754583,-1.0640869140625,-0.3126220703125,0.2423095703125,48.76708984375,-19.34814453125,64.75830078125
36129.337871708,-1.0640869140625,-0.3126220703125,0.2423095703125,24.658203125,-19.34814453125,64.75830078125
36129.352847125,-1.0640869140625,-0.3126220703125,0.2423095703125,24.658203125,-20.1416015625,64.75830078125
36129.369634333,-0.9910888671875,-0.3126220703125,0.2423095703125,24.658203125,-20.1416015625,64.75830078125
36129.369705916,-0.9910888671875,-0.3089599609375,0.2423095703125,24.658203125,-20.1416015625,64.75830078125
36129.36976725,-0.9910888671875,-0.3089599609375,0.330810546875,24.658203125,-20.1416015625,64.75830078125
36129.444348291,-0.9910888671875,-0.3089599609375,0.330810546875,24.658203125,-19.287109375,64.75830078125
36129.444801,-0.9910888671875,-0.3089599609375,0.330810546875,24.658203125,-19.287109375,9.21630859375
36129.470834375,-0.9803466796875,-0.3089599609375,0.330810546875,24.658203125,-19.287109375,9.21630859375
36129.470932375,-0.9803466796875,-0.3067626953125,0.330810546875,24.658203125,-19.287109375,9.21630859375
36129.471017916,-0.9803466796875,-0.3067626953125,0.330810546875,24.658203125,-11.77978515625,9.21630859375
36129.471101666,-0.9803466796875,-0.3067626953125,0.330810546875,24.658203125,-11.77978515625,-20.263671875
36129.502456291,-0.761962890625,-0.3067626953125,0.330810546875,24.658203125,-11.77978515625,-20.263671875
36129.504204708,-0.761962890625,-0.2459716796875,0.330810546875,24.658203125,-11.77978515625,-20.263671875
36129.504483291,-0.761962890625,-0.2459716796875,0.28955078125,24.658203125,-11.77978515625,-20.263671875
36129.504614375,-0.761962890625,-0.2459716796875,0.28955078125,54.3212890625,-11.77978515625,-20.263671875
36129.577776083,-0.6995849609375,-0.2459716796875,0.28955078125,54.3212890625,-11.77978515625,-20.263671875
36129.578978833,-0.6995849609375,-0.0899658203125,0.28955078125,54.3212890625,-11.77978515625,-20.263671875
36129.579420625,-0.6995849609375,-0.0899658203125,0.3201904296875,54.3212890625,-11.77978515625,-20.263671875
36129.579595041,-0.6995849609375,-0.0899658203125,0.3201904296875,54.3212890625,6.8359375,-20.263671875
36129.608348166,-0.390869140625,-0.0899658203125,0.3201904296875,54.3212890625,6.8359375,-20.263671875
36129.6084715,-0.390869140625,-0.0250244140625,0.3201904296875,54.3212890625,6.8359375,-20.263671875
36129.609049833,-0.390869140625,-0.0250244140625,0.20654296875,54.3212890625,6.8359375,-20.263671875
36129.609232416,-0.390869140625,-0.0250244140625,0.20654296875,49.8046875,6.8359375,-20.263671875
36129.622628333,-0.46875,-0.0250244140625,0.20654296875,49.8046875,6.8359375,-20.263671875
36129.638086958,-0.46875,-0.0367431640625,0.20654296875,49.8046875,6.8359375,-20.263671875
36129.638296833,-0.46875,-0.0367431640625,0.2806396484375,49.8046875,6.8359375,-20.263671875
36129.638408833,-0.46875,-0.0367431640625,0.2806396484375,49.8046875,-26.18408203125,-20.263671875
36129.638696791,-0.46875,-0.0367431640625,0.2806396484375,49.8046875,-26.18408203125,-76.35498046875
36129.653975625,-0.5050048828125,-0.0367431640625,0.2806396484375,49.8046875,-26.18408203125,-76.35498046875
36129.654143625,-0.5050048828125,-0.1492919921875,0.2806396484375,49.8046875,-26.18408203125,-76.35498046875
36129.654220166,-0.5050048828125,-0.1492919921875,0.040771484375,49.8046875,-26.18408203125,-76.35498046875
36129.698018541,-0.5050048828125,-0.1492919921875,0.040771484375,49.8046875,-28.1982421875,-76.35498046875
36129.698266458,-0.5050048828125,-0.1492919921875,0.040771484375,49.8046875,-28.1982421875,-63.1103515625
36129.720337583,-0.60302734375,-0.1492919921875,0.040771484375,49.8046875,-28.1982421875,-63.1103515625
36129.720417125,-0.60302734375,-0.104736328125,0.040771484375,49.8046875,-28.1982421875,-63.1103515625
36129.720488,-0.60302734375,-0.104736328125,0.040771484375,49.8046875,-26.4892578125,-63.1103515625
36129.7205575,-0.60302734375,-0.104736328125,0.040771484375,49.8046875,-26.4892578125,-55.2978515625
36129.727981458,-0.7115478515625,-0.104736328125,0.040771484375,49.8046875,-26.4892578125,-55.2978515625
36129.757355791,-0.7115478515625,-0.005615234375,0.040771484375,49.8046875,-26.4892578125,-55.2978515625
36129.762571333,-0.7115478515625,-0.005615234375,0.0811767578125,49.8046875,-26.4892578125,-55.2978515625
36129.762665916,-0.7115478515625,-0.005615234375,0.0811767578125,49.8046875,-21.54541015625,-55.2978515625
36129.77303475,-0.7115478515625,-0.005615234375,0.0811767578125,49.8046875,-21.54541015625,-8.056640625
36129.78668325,-0.7115478515625,-0.005615234375,0.1051025390625,49.8046875,-21.54541015625,-8.056640625
36129.786837166,-0.7115478515625,-0.005615234375,0.1051025390625,-40.6494140625,-21.54541015625,-8.056640625
36129.786911958,-0.7115478515625,-0.005615234375,0.1051025390625,-40.6494140625,-10.8642578125,-8.056640625
36129.803792833,-0.77783203125,-0.005615234375,0.1051025390625,-40.6494140625,-10.8642578125,-8.056640625
36129.803882375,-0.77783203125,0.047607421875,0.1051025390625,-40.6494140625,-10.8642578125,-8.056640625
36129.804120083,-0.77783203125,0.047607421875,0.1396484375,-40.6494140625,-10.8642578125,-8.056640625
36129.804191416,-0.77783203125,0.047607421875,0.1396484375,-43.3349609375,-10.8642578125,-8.056640625
36129.862171166,-0.7734375,0.047607421875,0.1396484375,-43.3349609375,-10.8642578125,-8.056640625
36129.868096333,-0.7734375,0.0772705078125,0.1396484375,-43.3349609375,-10.8642578125,-8.056640625
36129.86824025,-0.7734375,0.0772705078125,0.165771484375,-43.3349609375,-10.8642578125,-8.056640625
36129.877854416,-0.7734375,0.0772705078125,0.165771484375,-43.3349609375,12.26806640625,-8.056640625
36129.878120083,-0.7734375,0.0772705078125,0.165771484375,-43.3349609375,12.26806640625,62.255859375
36129.954560083,-0.774169921875,0.0772705078125,0.165771484375,-43.3349609375,12.26806640625,62.255859375
36129.955175625,-0.774169921875,-0.114501953125,0.165771484375,-43.3349609375,12.26806640625,62.255859375
36129.961895916,-0.774169921875,-0.114501953125,0.13623046875,-43.3349609375,12.26806640625,62.255859375
36129.962132166,-0.774169921875,-0.114501953125,0.13623046875,18.798828125,12.26806640625,62.255859375
36129.997142416,-0.76318359375,-0.114501953125,0.13623046875,18.798828125,12.26806640625,62.255859375
36130.004440041,-0.76318359375,-0.1434326171875,0.13623046875,18.798828125,12.26806640625,62.255859375
36130.004534791,-0.76318359375,-0.1434326171875,0.132080078125,18.798828125,12.26806640625,62.255859375
36130.004619375,-0.76318359375,-0.1434326171875,0.132080078125,18.798828125,22.15576171875,62.255859375
36130.014626,-0.75341796875,-0.1434326171875,0.132080078125,18.798828125,22.15576171875,62.255859375
36130.020054875,-0.75341796875,-0.2794189453125,0.132080078125,18.798828125,22.15576171875,62.255859375
36130.04593325,-0.75341796875,-0.2794189453125,0.1729736328125,18.798828125,22.15576171875,62.255859375
36130.164375041,-0.75341796875,-0.2794189453125,0.1729736328125,18.798828125,12.6953125,62.255859375
36130.165147583,-0.75341796875,-0.2794189453125,0.1729736328125,18.798828125,12.6953125,60.791015625
36130.165356208,-0.781982421875,-0.2794189453125,0.1729736328125,18.798828125,12.6953125,60.791015625
36130.165653875,-0.781982421875,-0.2794189453125,0.2166748046875,18.798828125,12.6953125,60.791015625
36130.207015666,-0.781982421875,-0.2794189453125,0.2166748046875,18.798828125,6.4697265625,60.791015625
36130.223167875,-0.781982421875,-0.2794189453125,0.2166748046875,18.798828125,6.4697265625,51.7578125
36130.223405833,-0.7891845703125,-0.2794189453125,0.2166748046875,18.798828125,6.4697265625,51.7578125
36130.223492208,-0.7891845703125,-0.2794189453125,0.2696533203125,18.798828125,6.4697265625,51.7578125
36130.223838958,-0.7891845703125,-0.2794189453125,0.2696533203125,18.798828125,-0.3662109375,51.7578125
36130.252831291,-0.9931640625,-0.2794189453125,0.2696533203125,18.798828125,-0.3662109375,51.7578125
36130.254243583,-0.9931640625,-0.3087158203125,0.2696533203125,18.798828125,-0.3662109375,51.7578125
36130.254510625,-0.9931640625,-0.3087158203125,0.230712890625,18.798828125,-0.3662109375,51.7578125
36130.254642333,-0.9931640625,-0.3087158203125,0.230712890625,-26.4892578125,-0.3662109375,51.7578125
36130.283060208,-0.947998046875,-0.3087158203125,0.230712890625,-26.4892578125,-0.3662109375,51.7578125
36130.283164083,-0.947998046875,-0.1876220703125,0.230712890625,-26.4892578125,-0.3662109375,51.7578125
36130.28380225,-0.947998046875,-0.1876220703125,0.3543701171875,-26.4892578125,-0.3662109375,51.7578125
36130.284012666,-0.947998046875,-0.1876220703125,0.3543701171875,-26.4892578125,3.35693359375,51.7578125
36130.304134541,-1.040771484375,-0.1876220703125,0.3543701171875,-26.4892578125,3.35693359375,51.7578125
36130.304214125,-1.040771484375,-0.2694091796875,0.3543701171875,-26.4892578125,3.35693359375,51.7578125
36130.325536458,-1.040771484375,-0.2694091796875,0.303466796875,-26.4892578125,3.35693359375,51.7578125
36130.325711833,-1.040771484375,-0.2694091796875,0.303466796875,-26.4892578125,6.7138671875,51.7578125
36130.325861208,-1.040771484375,-0.2694091796875,0.303466796875,-26.4892578125,6.7138671875,-14.58740234375
36130.372080083,-1.0369873046875,-0.2694091796875,0.303466796875,-26.4892578125,6.7138671875,-14.58740234375
36130.373702125,-1.0369873046875,-0.237060546875,0.303466796875,-26.4892578125,6.7138671875,-14.58740234375
36130.373968333,-1.0369873046875,-0.237060546875,0.333740234375,-26.4892578125,6.7138671875,-14.58740234375
36130.374123833,-1.0369873046875,-0.237060546875,0.333740234375,-18.73779296875,6.7138671875,-14.58740234375
36130.403577333,-1.1053466796875,-0.237060546875,0.333740234375,-18.73779296875,6.7138671875,-14.58740234375
36130.403667916,-1.1053466796875,-0.279296875,0.333740234375,-18.73779296875,6.7138671875,-14.58740234375
36130.403740041,-1.1053466796875,-0.279296875,0.3739013671875,-18.73779296875,6.7138671875,-14.58740234375
36130.403808791,-1.1053466796875,-0.279296875,0.3739013671875,-18.73779296875,8.60595703125,-14.58740234375
36130.403876916,-1.1053466796875,-0.279296875,0.3739013671875,-18.73779296875,8.60595703125,-27.52685546875
36130.463206708,-1.063720703125,-0.279296875,0.3739013671875,-18.73779296875,8.60595703125,-27.52685546875
36130.463527833,-1.063720703125,-0.220703125,0.3739013671875,-18.73779296875,8.60595703125,-27.52685546875
36130.463695333,-1.063720703125,-0.220703125,0.3914794921875,-18.73779296875,8.60595703125,-27.52685546875
36130.479522541,-1.063720703125,-0.220703125,0.3914794921875,-18.73779296875,16.357421875,-27.52685546875
36130.487477458,-1.063720703125,-0.220703125,0.3914794921875,-18.73779296875,16.357421875,-39.4287109375
36130.522208416,-1.05517578125,-0.220703125,0.3914794921875,-18.73779296875,16.357421875,-39.4287109375
36130.523807583,-1.05517578125,-0.1826171875,0.3914794921875,-18.73779296875,16.357421875,-39.4287109375
36130.52415,-1.05517578125,-0.1826171875,0.4852294921875,-18.73779296875,16.357421875,-39.4287109375
36130.524314833,-1.05517578125,-0.1826171875,0.4852294921875,-28.13720703125,16.357421875,-39.4287109375
36130.538149458,-1.1785888671875,-0.1826171875,0.4852294921875,-28.13720703125,16.357421875,-39.4287109375
36130.538478375,-1.1785888671875,-0.1405029296875,0.4852294921875,-28.13720703125,16.357421875,-39.4287109375
36130.53857875,-1.1785888671875,-0.1405029296875,0.5528564453125,-28.13720703125,16.357421875,-39.4287109375
36130.554244208,-1.1785888671875,-0.1405029296875,0.5528564453125,-28.13720703125,3.60107421875,-39.4287109375
36130.554322791,-1.1785888671875,-0.1405029296875,0.5528564453125,-28.13720703125,3.60107421875,-47.91259765625
36130.583233791,-1.2030029296875,-0.1405029296875,0.5528564453125,-28.13720703125,3.60107421875,-47.91259765625
36130.585778541,-1.2030029296875,-0.259765625,0.5528564453125,-28.13720703125,3.60107421875,-47.91259765625
36130.586061625,-1.2030029296875,-0.259765625,0.4210205078125,-28.13720703125,3.60107421875,-47.91259765625
36130.58617575,-1.2030029296875,-0.259765625,0.4210205078125,2.0751953125,3.60107421875,-47.91259765625
36130.603745291,-1.2760009765625,-0.259765625,0.4210205078125,2.0751953125,3.60107421875,-47.91259765625
36130.603825333,-1.2760009765625,-0.2691650390625,0.4210205078125,2.0751953125,3.60107421875,-47.91259765625
36130.603898916,-1.2760009765625,-0.2691650390625,0.530029296875,2.0751953125,3.60107421875,-47.91259765625
36130.614518791,-1.2760009765625,-0.2691650390625,0.530029296875,2.0751953125,-2.50244140625,-47.91259765625
36130.620482666,-1.2760009765625,-0.2691650390625,0.530029296875,2.0751953125,-2.50244140625,-30.3955078125
36130.629641791,-1.2388916015625,-0.2691650390625,0.530029296875,2.0751953125,-2.50244140625,-30.3955078125
36130.629938625,-1.2388916015625,-0.1297607421875,0.530029296875,2.0751953125,-2.50244140625,-30.3955078125
36130.630050208,-1.2388916015625,-0.1297607421875,0.4290771484375,2.0751953125,-2.50244140625,-30.3955078125
36130.642986,-1.2388916015625,-0.1297607421875,0.4290771484375,2.0751953125,-0.9765625,-30.3955078125
36130.643152666,-1.2388916015625,-0.1297607421875,0.4290771484375,2.0751953125,-0.9765625,-11.29150390625
36130.657909041,-1.1258544921875,-0.1297607421875,0.4290771484375,2.0751953125,-0.9765625,-11.29150390625
36130.658063125,-1.1258544921875,-0.11181640625,0.4290771484375,2.0751953125,-0.9765625,-11.29150390625
36130.68705425,-1.1258544921875,-0.11181640625,0.3729248046875,2.0751953125,-0.9765625,-11.29150390625
36130.688505625,-1.1258544921875,-0.11181640625,0.3729248046875,2.0751953125,2.44140625,-11.29150390625
36130.688717,-1.1258544921875,-0.11181640625,0.3729248046875,2.0751953125,2.44140625,-3.23486328125
36130.762528041,-0.9578857421875,-0.11181640625,0.3729248046875,2.0751953125,2.44140625,-3.23486328125
36130.762929916,-0.9578857421875,-0.04931640625,0.3729248046875,2.0751953125,2.44140625,-3.23486328125
36130.763256958,-0.9578857421875,-0.04931640625,0.3551025390625,2.0751953125,2.44140625,-3.23486328125
36130.786908666,-0.9578857421875,-0.04931640625,0.3551025390625,2.0751953125,2.44140625,-1.46484375
NEW_REP,,,,,,
36130.807816833,-0.9212646484375,-0.04931640625,0.3551025390625,2.0751953125,2.44140625,-1.46484375
36130.807985458,-0.9212646484375,-0.03662109375,0.3551025390625,2.0751953125,2.44140625,-1.46484375
36130.808352958,-0.9212646484375,-0.03662109375,0.34326171875,2.0751953125,2.44140625,-1.46484375
36130.837065083,-0.9212646484375,-0.03662109375,0.34326171875,-6.04248046875,2.44140625,-1.46484375
36130.83866125,-0.9290771484375,-0.03662109375,0.34326171875,-6.04248046875,2.44140625,-1.46484375
36130.838902708,-0.9290771484375,-0.0572509765625,0.34326171875,-6.04248046875,2.44140625,-1.46484375
36130.839030125,-0.9290771484375,-0.0572509765625,0.35400390625,-6.04248046875,2.44140625,-1.46484375
36130.853986166,-0.9290771484375,-0.0572509765625,0.35400390625,-6.04248046875,3.11279296875,-1.46484375
36130.85406475,-0.9290771484375,-0.0572509765625,0.35400390625,-6.04248046875,3.11279296875,-0.1220703125
36130.882226208,-0.92724609375,-0.0572509765625,0.35400390625,-6.04248046875,3.11279296875,-0.1220703125
36130.912239875,-0.92724609375,-0.0235595703125,0.35400390625,-6.04248046875,3.11279296875,-0.1220703125
36130.913911583,-0.92724609375,-0.0235595703125,0.3841552734375,-6.04248046875,3.11279296875,-0.1220703125
36130.914233708,-0.92724609375,-0.0235595703125,0.3841552734375,-1.3427734375,3.11279296875,-0.1220703125
36130.914395791,-0.94140625,-0.0235595703125,0.3841552734375,-1.3427734375,3.11279296875,-0.1220703125
36130.942825041,-0.94140625,-0.0235595703125,0.360595703125,-1.3427734375,3.11279296875,-0.1220703125
36130.942986958,-0.94140625,-0.0235595703125,0.360595703125,-1.28173828125,3.11279296875,-0.1220703125
36130.943546333,-0.94140625,-0.0235595703125,0.360595703125,-1.28173828125,3.84521484375,-0.1220703125
36130.959032458,-1.0125732421875,-0.0235595703125,0.360595703125,-1.28173828125,3.84521484375,-0.1220703125
36130.959235416,-1.0125732421875,-0.0235595703125,0.3946533203125,-1.28173828125,3.84521484375,-0.1220703125
36130.959305708,-1.0125732421875,-0.0235595703125,0.3946533203125,-7.8125,3.84521484375,-0.1220703125
36130.960705375,-1.0125732421875,-0.0235595703125,0.3946533203125,-7.8125,2.74658203125,-0.1220703125
36130.974426416,-1.08935546875,-0.0235595703125,0.3946533203125,-7.8125,2.74658203125,-0.1220703125
36130.9877215,-1.08935546875,-0.044189453125,0.3946533203125,-7.8125,2.74658203125,-0.1220703125
36131.003794083,-1.08935546875,-0.044189453125,0.3919677734375,-7.8125,2.74658203125,-0.1220703125
36131.077565416,-1.08935546875,-0.044189453125,0.3919677734375,-7.8125,0.3662109375,-0.1220703125
36131.078001,-1.08935546875,-0.044189453125,0.3919677734375,-7.8125,0.3662109375,8.056640625
36131.079977041,-1.2725830078125,-0.044189453125,0.3919677734375,-7.8125,0.3662109375,8.056640625
36131.080411208,-1.2725830078125,-0.044189453125,0.3919677734375,-7.8125,-3.23486328125,8.056640625
36131.1064365,-1.3369140625,-0.044189453125,0.3919677734375,-7.8125,-3.23486328125,8.056640625
