Timestamp,Accel_X,Accel_Y,Accel_Z,Gyro_X,Gyro_Y,Gyro_Z
37536.965893791,-0.30322265625,0.0,0.0,0.0,0.0,0.0
37536.979910041,-0.29736328125,0.0,0.0,0.0,0.0,0.0
37537.010067125,-0.298828125,0.0,0.0,0.0,0.0,0.0
37537.011050875,-0.298828125,0.4385986328125,0.0,0.0,0.0,0.0
37537.040274875,-0.301025390625,0.4385986328125,0.0,0.0,0.0,0.0
37537.040482083,-0.301025390625,0.4345703125,0.0,0.0,0.0,0.0
37537.055100541,-0.3033447265625,0.4345703125,0.0,0.0,0.0,0.0
37537.055824458,-0.3033447265625,0.43408203125,0.0,0.0,0.0,0.0
37537.085411958,-0.3037109375,0.43408203125,0.0,0.0,0.0,0.0
37537.085653458,-0.3037109375,0.4344482421875,0.0,0.0,0.0,0.0
37537.085803333,-0.3037109375,0.4344482421875,0.820556640625,0.0,0.0,0.0
37537.110992833,-0.300537109375,0.4344482421875,0.820556640625,0.0,0.0,0.0
37537.111065916,-0.300537109375,0.43701171875,0.820556640625,0.0,0.0,0.0
37537.145005333,-0.2991943359375,0.43701171875,0.820556640625,0.0,0.0,0.0
37537.145157375,-0.2991943359375,0.443603515625,0.820556640625,0.0,0.0,0.0
37537.146026541,-0.2991943359375,0.443603515625,0.8162841796875,0.0,0.0,0.0
37537.14619225,-0.2991943359375,0.443603515625,0.8162841796875,2.0751953125,0.0,0.0
37537.159766625,-0.2991943359375,0.4378662109375,0.8162841796875,2.0751953125,0.0,0.0
37537.174882166,-0.2991943359375,0.4378662109375,0.8193359375,2.0751953125,0.0,0.0
37537.175054291,-0.2991943359375,0.4378662109375,0.8193359375,2.86865234375,0.0,0.0
37537.175480875,-0.3038330078125,0.4378662109375,0.8193359375,2.86865234375,0.0,0.0
37537.175623791,-0.3038330078125,0.4306640625,0.8193359375,2.86865234375,0.0,0.0
37537.204900875,-0.3038330078125,0.4306640625,0.8193359375,2.86865234375,-0.48828125,0.0
37537.219908041,-0.302978515625,0.4306640625,0.8193359375,2.86865234375,-0.48828125,0.0
37537.22011925,-0.302978515625,0.4378662109375,0.8193359375,2.86865234375,-0.48828125,0.0
37537.220234375,-0.302978515625,0.4378662109375,0.82177734375,2.86865234375,-0.48828125,0.0
37537.249661041,-0.302978515625,0.4378662109375,0.82177734375,2.86865234375,-0.3662109375,0.0
37537.249807416,-0.2989501953125,0.4378662109375,0.82177734375,2.86865234375,-0.3662109375,0.0
37537.250641708,-0.2989501953125,0.434814453125,0.82177734375,2.86865234375,-0.3662109375,0.0
37537.280258166,-0.2989501953125,0.434814453125,0.82177734375,2.0751953125,-0.3662109375,0.0
37537.282127666,-0.2989501953125,0.434814453125,0.82177734375,2.0751953125,-0.42724609375,0.0
37537.282314625,-0.2998046875,0.434814453125,0.82177734375,2.0751953125,-0.42724609375,0.0
37537.282452,-0.2998046875,0.4361572265625,0.82177734375,2.0751953125,-0.42724609375,0.0
37537.298331166,-0.2998046875,0.4361572265625,0.82177734375,2.0751953125,-0.3662109375,0.0
37537.326418916,-0.2994384765625,0.4361572265625,0.82177734375,2.0751953125,-0.3662109375,0.0
37537.326946041,-0.2994384765625,0.436279296875,0.82177734375,2.0751953125,-0.3662109375,0.0
37537.342540916,-0.2994384765625,0.436279296875,0.8194580078125,2.0751953125,-0.3662109375,0.0
37537.342854125,-0.2994384765625,0.436279296875,0.8194580078125,2.01416015625,-0.3662109375,0.0
37537.343045,-0.3004150390625,0.436279296875,0.8194580078125,2.01416015625,-0.3662109375,0.0
37537.343571958,-0.3004150390625,0.43505859375,0.8194580078125,2.01416015625,-0.3662109375,0.0
37537.370241125,-0.3004150390625,0.43505859375,0.8194580078125,2.01416015625,-0.67138671875,0.0
37537.399477916,-0.30126953125,0.43505859375,0.8194580078125,2.01416015625,-0.67138671875,0.0
37537.402040333,-0.30126953125,0.4346923828125,0.8194580078125,2.01416015625,-0.67138671875,0.0
37537.402088625,-0.30126953125,0.4346923828125,0.8184814453125,2.01416015625,-0.67138671875,0.0
37537.402129833,-0.30126953125,0.4346923828125,0.8184814453125,2.01416015625,-0.6103515625,0.0
37537.4295185,-0.300048828125,0.4346923828125,0.8184814453125,2.01416015625,-0.6103515625,0.0
37537.429623083,-0.300048828125,0.4364013671875,0.8184814453125,2.01416015625,-0.6103515625,0.0
37537.43067425,-0.300048828125,0.4364013671875,0.81884765625,2.01416015625,-0.6103515625,0.0
37537.430747375,-0.300048828125,0.4364013671875,0.81884765625,2.197265625,-0.6103515625,0.0
37537.488170916,-0.29736328125,0.4364013671875,0.81884765625,2.197265625,-0.6103515625,0.0
37537.489364125,-0.29736328125,0.43212890625,0.81884765625,2.197265625,-0.6103515625,0.0
37537.490596458,-0.29736328125,0.43212890625,0.8193359375,2.197265625,-0.6103515625,0.0
37537.49066675,-0.29736328125,0.43212890625,0.8193359375,2.197265625,-0.30517578125,0.0
37537.520667041,-0.29736328125,0.4154052734375,0.8193359375,2.197265625,-0.30517578125,0.0
37537.520761791,-0.29736328125,0.4154052734375,0.830078125,2.197265625,-0.30517578125,0.0
37537.520810375,-0.29736328125,0.4154052734375,0.830078125,2.8076171875,-0.30517578125,0.0
37537.521519916,-0.302001953125,0.4154052734375,0.830078125,2.8076171875,-0.30517578125,0.0
37537.534332166,-0.302001953125,0.4154052734375,0.8470458984375,2.8076171875,-0.30517578125,0.0
37537.534387208,-0.302001953125,0.4154052734375,0.8470458984375,-16.357421875,-0.30517578125,0.0
37537.535833041,-0.302001953125,0.4154052734375,0.8470458984375,-16.357421875,0.48828125,0.0
37537.564545375,-0.234375,0.4154052734375,0.8470458984375,-16.357421875,0.48828125,0.0
37537.56466075,-0.234375,0.3726806640625,0.8470458984375,-16.357421875,0.48828125,0.0
37537.565619833,-0.234375,0.3726806640625,0.966796875,-16.357421875,0.48828125,0.0
37537.565717166,-0.234375,0.3726806640625,0.966796875,-31.8603515625,0.48828125,0.0
37537.579339,-0.2847900390625,0.3726806640625,0.966796875,-31.8603515625,0.48828125,0.0
37537.579457166,-0.2847900390625,0.3511962890625,0.966796875,-31.8603515625,0.48828125,0.0
37537.581107166,-0.2847900390625,0.3511962890625,1.064697265625,-31.8603515625,0.48828125,0.0
37537.593497875,-0.2847900390625,0.3511962890625,1.064697265625,-31.8603515625,4.08935546875,0.0
37537.624341458,-0.1160888671875,0.3511962890625,1.064697265625,-31.8603515625,4.08935546875,0.0
37537.624458791,-0.1160888671875,0.662109375,1.064697265625,-31.8603515625,4.08935546875,0.0
37537.625358208,-0.1160888671875,0.662109375,1.2364501953125,-31.8603515625,4.08935546875,0.0
37537.640428166,-0.1160888671875,0.662109375,1.2364501953125,-31.8603515625,-9.3994140625,0.0
37537.659836958,-0.1510009765625,0.662109375,1.2364501953125,-31.8603515625,-9.3994140625,0.0
37537.659892166,-0.1510009765625,1.0811767578125,1.2364501953125,-31.8603515625,-9.3994140625,0.0
37537.65993825,-0.1510009765625,1.0811767578125,1.239501953125,-31.8603515625,-9.3994140625,0.0
37537.669851166,-0.1510009765625,1.0811767578125,1.239501953125,-31.8603515625,-42.48046875,0.0
37537.695949833,-0.4058837890625,1.0811767578125,1.239501953125,-31.8603515625,-42.48046875,0.0
37537.696292416,-0.4058837890625,0.788818359375,1.239501953125,-31.8603515625,-42.48046875,0.0
37537.696397916,-0.4058837890625,0.788818359375,1.244140625,-31.8603515625,-42.48046875,0.0
37537.700361375,-0.4058837890625,0.788818359375,1.244140625,-31.8603515625,-80.2001953125,0.0
37537.714567458,-0.4217529296875,0.788818359375,1.244140625,-31.8603515625,-80.2001953125,0.0
37537.7147125,-0.4217529296875,0.6630859375,1.244140625,-31.8603515625,-80.2001953125,0.0
37537.715326208,-0.4217529296875,0.6630859375,1.096923828125,-31.8603515625,-80.2001953125,0.0
37537.730864,-0.4217529296875,0.6630859375,1.096923828125,-31.8603515625,-93.017578125,0.0
37537.744429666,-0.477783203125,0.6630859375,1.096923828125,-31.8603515625,-93.017578125,0.0
37537.744581291,-0.477783203125,0.575927734375,1.096923828125,-31.8603515625,-93.017578125,0.0
37537.760470208,-0.477783203125,0.575927734375,0.977294921875,-31.8603515625,-93.017578125,0.0
37537.76060125,-0.477783203125,0.575927734375,0.977294921875,-31.8603515625,-95.76416015625,0.0
37537.777046041,-0.4710693359375,0.575927734375,0.977294921875,-31.8603515625,-95.76416015625,0.0
37537.777111583,-0.4710693359375,0.6165771484375,0.977294921875,-31.8603515625,-95.76416015625,0.0
37537.777437666,-0.4710693359375,0.6165771484375,0.946533203125,-31.8603515625,-95.76416015625,0.0
37537.793420166,-0.4710693359375,0.6165771484375,0.946533203125,-31.8603515625,-97.412109375,0.0
37537.804472875,-0.485107421875,0.6165771484375,0.946533203125,-31.8603515625,-97.412109375,0.0
37537.810174125,-0.485107421875,0.5001220703125,0.946533203125,-31.8603515625,-97.412109375,0.0
37537.8102405,-0.485107421875,0.5001220703125,0.8363037109375,-31.8603515625,-97.412109375,0.0
37537.819826708,-0.485107421875,0.5001220703125,0.8363037109375,-31.8603515625,-99.30419921875,0.0
37537.834712583,-0.5323486328125,0.5001220703125,0.8363037109375,-31.8603515625,-99.30419921875,0.0
37537.834860291,-0.5323486328125,0.4034423828125,0.8363037109375,-31.8603515625,-99.30419921875,0.0
37537.835824375,-0.5323486328125,0.4034423828125,0.6004638671875,-31.8603515625,-99.30419921875,0.0
37537.850137583,-0.5323486328125,0.4034423828125,0.6004638671875,-31.8603515625,-97.412109375,0.0
37537.864340375,-0.5703125,0.4034423828125,0.6004638671875,-31.8603515625,-97.412109375,0.0
37537.864501583,-0.5703125,0.2745361328125,0.6004638671875,-31.8603515625,-97.412109375,0.0
37537.865606,-0.5703125,0.2745361328125,0.545166015625,-31.8603515625,-97.412109375,0.0
37537.879780916,-0.5703125,0.2745361328125,0.545166015625,-31.8603515625,-88.8671875,0.0
37537.894359625,-0.6053466796875,0.2745361328125,0.545166015625,-31.8603515625,-88.8671875,0.0
37537.894481375,-0.6053466796875,0.232666015625,0.545166015625,-31.8603515625,-88.8671875,0.0
37537.924783416,-0.6053466796875,0.232666015625,0.4981689453125,-31.8603515625,-88.8671875,0.0
37537.924951583,-0.6053466796875,0.232666015625,0.4981689453125,-31.8603515625,-81.4208984375,0.0
37537.925623166,-0.6209716796875,0.232666015625,0.4981689453125,-31.8603515625,-81.4208984375,0.0
37537.925768583,-0.6209716796875,0.255859375,0.4981689453125,-31.8603515625,-81.4208984375,0.0
37537.943944666,-0.6209716796875,0.255859375,0.4981689453125,99.4873046875,-81.4208984375,0.0
37537.944012666,-0.6209716796875,0.255859375,0.4981689453125,99.4873046875,-72.998046875,0.0
37537.970172791,-0.6429443359375,0.255859375,0.4981689453125,99.4873046875,-72.998046875,0.0
37537.97033375,-0.6429443359375,0.1571044921875,0.4981689453125,99.4873046875,-72.998046875,0.0
37537.976996708,-0.6429443359375,0.1571044921875,0.404541015625,99.4873046875,-72.998046875,0.0
37537.97707775,-0.6429443359375,0.1571044921875,0.404541015625,112.3046875,-72.998046875,0.0
37537.984645875,-0.677490234375,0.1571044921875,0.404541015625,112.3046875,-72.998046875,0.0
37537.984821166,-0.677490234375,0.1019287109375,0.404541015625,112.3046875,-72.998046875,0.0
37538.000583416,-0.677490234375,0.1019287109375,0.3209228515625,112.3046875,-72.998046875,0.0
37538.000728791,-0.677490234375,0.1019287109375,0.3209228515625,112.3046875,-62.744140625,0.0
37538.014603083,-0.70263671875,0.1019287109375,0.3209228515625,112.3046875,-62.744140625,0.0
37538.014766833,-0.70263671875,0.0113525390625,0.3209228515625,112.3046875,-62.744140625,0.0
37538.01609675,-0.70263671875,0.0113525390625,0.237548828125,112.3046875,-62.744140625,0.0
37538.029720625,-0.70263671875,0.0113525390625,0.237548828125,112.3046875,-55.17578125,0.0
37538.060252541,-0.714111328125,0.0113525390625,0.237548828125,112.3046875,-55.17578125,0.0
37538.060426041,-0.714111328125,-0.0452880859375,0.237548828125,112.3046875,-55.17578125,0.0
37538.061129708,-0.714111328125,-0.0452880859375,0.286865234375,112.3046875,-55.17578125,0.0
37538.0748045,-0.714111328125,-0.0452880859375,0.286865234375,112.3046875,-48.4619140625,0.0
37538.104441041,-0.742919921875,-0.0452880859375,0.286865234375,112.3046875,-48.4619140625,0.0
37538.134835625,-0.742919921875,-0.0325927734375,0.286865234375,112.3046875,-48.4619140625,0.0
37538.135005833,-0.742919921875,-0.0325927734375,0.2054443359375,112.3046875,-48.4619140625,0.0
37538.1356425,-0.742919921875,-0.0325927734375,0.2054443359375,74.21875,-48.4619140625,0.0
37538.137966583,-0.7725830078125,-0.0325927734375,0.2054443359375,74.21875,-48.4619140625,0.0
37538.160471875,-0.7725830078125,-0.0325927734375,0.2054443359375,80.2001953125,-48.4619140625,0.0
37538.160541125,-0.7725830078125,-0.0325927734375,0.2054443359375,80.2001953125,-38.6962890625,0.0
37538.180018958,-0.85693359375,-0.0325927734375,0.2054443359375,80.2001953125,-38.6962890625,0.0
37538.180207208,-0.85693359375,-0.0960693359375,0.2054443359375,80.2001953125,-38.6962890625,0.0
37538.180287333,-0.85693359375,-0.0960693359375,0.0765380859375,80.2001953125,-38.6962890625,0.0
37538.181817458,-0.85693359375,-0.0960693359375,0.0765380859375,69.64111328125,-38.6962890625,0.0
37538.210272666,-0.8896484375,-0.0960693359375,0.0765380859375,69.64111328125,-38.6962890625,0.0
37538.210436583,-0.8896484375,-0.1129150390625,0.0765380859375,69.64111328125,-38.6962890625,0.0
37538.21096275,-0.8896484375,-0.1129150390625,0.109375,69.64111328125,-38.6962890625,0.0
37538.211138666,-0.8896484375,-0.1129150390625,0.109375,60.546875,-38.6962890625,0.0
37538.231954125,-0.9168701171875,-0.1129150390625,0.109375,60.546875,-38.6962890625,0.0
37538.232076083,-0.9168701171875,-0.1485595703125,0.109375,60.546875,-38.6962890625,0.0
37538.232142041,-0.9168701171875,-0.1485595703125,0.1390380859375,60.546875,-38.6962890625,0.0
37538.239757375,-0.9168701171875,-0.1485595703125,0.1390380859375,60.546875,-27.587890625,0.0
37538.260872791,-0.95849609375,-0.1485595703125,0.1390380859375,60.546875,-27.587890625,0.0
37538.260947333,-0.95849609375,-0.1455078125,0.1390380859375,60.546875,-27.587890625,0.0
37538.261010583,-0.95849609375,-0.1455078125,0.1234130859375,60.546875,-27.587890625,0.0
37538.284922208,-0.95849609375,-0.1455078125,0.1234130859375,60.546875,-21.3623046875,0.0
37538.28509425,-0.9854736328125,-0.1455078125,0.1234130859375,60.546875,-21.3623046875,0.0
37538.285924,-0.9854736328125,-0.106689453125,0.1234130859375,60.546875,-21.3623046875,0.0
37538.286070041,-0.9854736328125,-0.106689453125,0.0670166015625,60.546875,-21.3623046875,0.0
37538.299848666,-0.9854736328125,-0.106689453125,0.0670166015625,60.546875,-20.56884765625,0.0
37538.330894333,-0.998291015625,-0.106689453125,0.0670166015625,60.546875,-20.56884765625,0.0
37538.331103291,-0.998291015625,-0.10693359375,0.0670166015625,60.546875,-20.56884765625,0.0
37538.331175083,-0.998291015625,-0.10693359375,0.0389404296875,60.546875,-20.56884765625,0.0
37538.331454958,-0.998291015625,-0.10693359375,0.0389404296875,18.9208984375,-20.56884765625,0.0
37538.344478583,-0.977783203125,-0.10693359375,0.0389404296875,18.9208984375,-20.56884765625,0.0
37538.344602,-0.977783203125,-0.083984375,0.0389404296875,18.9208984375,-20.56884765625,0.0
37538.345425666,-0.977783203125,-0.083984375,0.1019287109375,18.9208984375,-20.56884765625,0.0
37538.360629875,-0.977783203125,-0.083984375,0.1019287109375,18.9208984375,-20.3857421875,0.0
37538.376763958,-0.9591064453125,-0.083984375,0.1019287109375,18.9208984375,-20.3857421875,0.0
37538.376832166,-0.9591064453125,-0.0933837890625,0.1019287109375,18.9208984375,-20.3857421875,0.0
37538.376892125,-0.9591064453125,-0.0933837890625,0.0843505859375,18.9208984375,-20.3857421875,0.0
37538.393318083,-0.9591064453125,-0.0933837890625,0.0843505859375,18.9208984375,-16.4794921875,0.0
37538.409958875,-0.950927734375,-0.0933837890625,0.0843505859375,18.9208984375,-16.4794921875,0.0
37538.410022875,-0.950927734375,-0.0738525390625,0.0843505859375,18.9208984375,-16.4794921875,0.0
37538.410081125,-0.950927734375,-0.0738525390625,0.0523681640625,18.9208984375,-16.4794921875,0.0
37538.434792416,-0.950927734375,-0.0738525390625,0.0523681640625,18.9208984375,-13.12255859375,0.0
37538.434914041,-0.9447021484375,-0.0738525390625,0.0523681640625,18.9208984375,-13.12255859375,0.0
37538.443375083,-0.9447021484375,-0.0797119140625,0.0523681640625,18.9208984375,-13.12255859375,0.0
37538.443439958,-0.9447021484375,-0.0797119140625,0.06298828125,18.9208984375,-13.12255859375,0.0
37538.465407666,-0.9447021484375,-0.0797119140625,0.06298828125,18.9208984375,-7.87353515625,0.0
37538.479660625,-0.950927734375,-0.0797119140625,0.06298828125,18.9208984375,-7.87353515625,0.0
37538.479786333,-0.950927734375,-0.0555419921875,0.06298828125,18.9208984375,-7.87353515625,0.0
37538.480814541,-0.950927734375,-0.0555419921875,0.10205078125,18.9208984375,-7.87353515625,0.0
37538.495212125,-0.950927734375,-0.0555419921875,0.10205078125,18.9208984375,-0.3662109375,0.0
37538.510166083,-0.958740234375,-0.0555419921875,0.10205078125,18.9208984375,-0.3662109375,0.0
37538.539680208,-0.958740234375,-0.038818359375,0.10205078125,18.9208984375,-0.3662109375,0.0
37538.5398345,-0.958740234375,-0.038818359375,0.1519775390625,18.9208984375,-0.3662109375,0.0
37538.54051975,-0.958740234375,-0.038818359375,0.1519775390625,18.9208984375,6.7138671875,0.0
37538.540655458,-0.9658203125,-0.038818359375,0.1519775390625,18.9208984375,6.7138671875,0.0
37538.560358166,-0.9658203125,-0.038818359375,0.1519775390625,-2.9296875,6.7138671875,0.0
37538.560427916,-0.9658203125,-0.038818359375,0.1519775390625,-2.9296875,7.50732421875,0.0
37538.569631916,-0.97998046875,-0.038818359375,0.1519775390625,-2.9296875,7.50732421875,0.0
37538.569758041,-0.97998046875,-0.0804443359375,0.1519775390625,-2.9296875,7.50732421875,0.0
37538.577094208,-0.97998046875,-0.0804443359375,0.2265625,-2.9296875,7.50732421875,0.0
37538.5993445,-0.97998046875,-0.0804443359375,0.2265625,-2.9296875,7.99560546875,0.0
37538.629898583,-1.0045166015625,-0.0804443359375,0.2265625,-2.9296875,7.99560546875,0.0
37538.630053208,-1.0045166015625,-0.1053466796875,0.2265625,-2.9296875,7.99560546875,0.0
37538.630672125,-1.0045166015625,-0.1053466796875,0.26318359375,-2.9296875,7.99560546875,0.0
37538.6308505,-1.0045166015625,-0.1053466796875,0.26318359375,-2.9296875,7.8125,0.0
37538.659759583,-1.01123046875,-0.1053466796875,0.26318359375,-2.9296875,7.8125,0.0
37538.659900666,-1.01123046875,-0.1185302734375,0.26318359375,-2.9296875,7.8125,0.0
37538.677098416,-1.01123046875,-0.1185302734375,0.2952880859375,-2.9296875,7.8125,0.0
37538.677167583,-1.01123046875,-0.1185302734375,0.2952880859375,0.48828125,7.8125,0.0
37538.6869655,-1.0177001953125,-0.1185302734375,0.2952880859375,0.48828125,7.8125,0.0
37538.692988916,-1.0177001953125,-0.11767578125,0.2952880859375,0.48828125,7.8125,0.0
37538.693034666,-1.0177001953125,-0.11767578125,0.2952880859375,0.48828125,8.23974609375,0.0
37538.71967025,-1.0230712890625,-0.11767578125,0.2952880859375,0.48828125,8.23974609375,0.0
37538.719812625,-1.0230712890625,-0.1248779296875,0.2952880859375,0.48828125,8.23974609375,0.0
37538.726735833,-1.0230712890625,-0.1248779296875,0.3260498046875,0.48828125,8.23974609375,0.0
37538.726798833,-1.0230712890625,-0.1248779296875,0.3260498046875,6.591796875,8.23974609375,0.0
37538.76467325,-1.0162353515625,-0.1248779296875,0.3260498046875,6.591796875,8.23974609375,0.0
37538.764828,-1.0162353515625,-0.13037109375,0.3260498046875,6.591796875,8.23974609375,0.0
37538.7765745,-1.0162353515625,-0.13037109375,0.321533203125,6.591796875,8.23974609375,0.0
37538.779592083,-1.0162353515625,-0.13037109375,0.321533203125,6.591796875,4.2724609375,0.0
37538.811048416,-0.98974609375,-0.13037109375,0.321533203125,6.591796875,4.2724609375,0.0
37538.811262625,-0.98974609375,-0.1207275390625,0.321533203125,6.591796875,4.2724609375,0.0
37538.811348708,-0.98974609375,-0.1207275390625,0.3204345703125,6.591796875,4.2724609375,0.0
37538.811400916,-0.98974609375,-0.1207275390625,0.3204345703125,3.84521484375,4.2724609375,0.0
37538.827935416,-0.9842529296875,-0.1207275390625,0.3204345703125,3.84521484375,4.2724609375,0.0
37538.828458083,-0.9842529296875,-0.1143798828125,0.3204345703125,3.84521484375,4.2724609375,0.0
37538.829402541,-0.9842529296875,-0.1143798828125,0.2974853515625,3.84521484375,4.2724609375,0.0
37538.843789875,-0.9842529296875,-0.1143798828125,0.2974853515625,3.84521484375,-0.8544921875,0.0
37538.860102375,-0.9635009765625,-0.1143798828125,0.2974853515625,3.84521484375,-0.8544921875,0.0
37538.86015925,-0.9635009765625,-0.106201171875,0.2974853515625,3.84521484375,-0.8544921875,0.0
37538.869931666,-0.9635009765625,-0.106201171875,0.2705078125,3.84521484375,-0.8544921875,0.0
37538.870048541,-0.9635009765625,-0.106201171875,0.2705078125,3.84521484375,-2.44140625,0.0
37538.900357208,-0.9471435546875,-0.106201171875,0.2705078125,3.84521484375,-2.44140625,0.0
37538.90053025,-0.9471435546875,-0.1048583984375,0.2705078125,3.84521484375,-2.44140625,0.0
37538.900583666,-0.9471435546875,-0.1048583984375,0.24560546875,3.84521484375,-2.44140625,0.0
37538.901455958,-0.9471435546875,-0.1048583984375,0.24560546875,3.84521484375,-3.96728515625,0.0
37538.926597416,-0.9373779296875,-0.1048583984375,0.24560546875,3.84521484375,-3.96728515625,0.0
37538.926653041,-0.9373779296875,-0.1043701171875,0.24560546875,3.84521484375,-3.96728515625,0.0
37538.926699791,-0.9373779296875,-0.1043701171875,0.2396240234375,3.84521484375,-3.96728515625,0.0
37538.929654416,-0.9373779296875,-0.1043701171875,0.2396240234375,3.84521484375,-4.0283203125,0.0
37538.959832,-0.93115234375,-0.1043701171875,0.2396240234375,3.84521484375,-4.0283203125,0.0
37538.959946958,-0.93115234375,-0.08740234375,0.2396240234375,3.84521484375,-4.0283203125,0.0
37538.961009375,-0.93115234375,-0.08740234375,0.2242431640625,3.84521484375,-4.0283203125,0.0
37538.961101375,-0.93115234375,-0.08740234375,0.2242431640625,1.8310546875,-4.0283203125,0.0
37538.976461166,-0.9234619140625,-0.08740234375,0.2242431640625,1.8310546875,-4.0283203125,0.0
37538.976513875,-0.9234619140625,-0.0821533203125,0.2242431640625,1.8310546875,-4.0283203125,0.0
37538.9765605,-0.9234619140625,-0.0821533203125,0.2325439453125,1.8310546875,-4.0283203125,0.0
37539.019740166,-0.9234619140625,-0.0821533203125,0.2325439453125,1.8310546875,-3.41796875,0.0
37539.019854166,-0.9061279296875,-0.0821533203125,0.2325439453125,1.8310546875,-3.41796875,0.0
37539.020731041,-0.9061279296875,-0.0770263671875,0.2325439453125,1.8310546875,-3.41796875,0.0
37539.020821166,-0.9061279296875,-0.0770263671875,0.2740478515625,1.8310546875,-3.41796875,0.0
37539.042505083,-0.9061279296875,-0.0770263671875,0.2740478515625,1.8310546875,-4.57763671875,0.0
37539.064630375,-0.9539794921875,-0.0770263671875,0.2740478515625,1.8310546875,-4.57763671875,0.0
37539.064732625,-0.9539794921875,-0.101806640625,0.2740478515625,1.8310546875,-4.57763671875,0.0
37539.065905958,-0.9539794921875,-0.101806640625,0.26318359375,1.8310546875,-4.57763671875,0.0
37539.065991916,-0.9539794921875,-0.101806640625,0.26318359375,20.08056640625,-4.57763671875,0.0
37539.109566458,-0.97314453125,-0.101806640625,0.26318359375,20.08056640625,-4.57763671875,0.0
37539.112443791,-0.97314453125,-0.154541015625,0.26318359375,20.08056640625,-4.57763671875,0.0
37539.112497875,-0.97314453125,-0.154541015625,0.2625732421875,20.08056640625,-4.57763671875,0.0
37539.125961916,-0.97314453125,-0.154541015625,0.2625732421875,20.08056640625,-16.66259765625,0.0
37539.154773916,-1.0595703125,-0.154541015625,0.2625732421875,20.08056640625,-16.66259765625,0.0
37539.154916083,-1.0595703125,-0.1717529296875,0.2625732421875,20.08056640625,-16.66259765625,0.0
37539.155960625,-1.0595703125,-0.1717529296875,0.2213134765625,20.08056640625,-16.66259765625,0.0
37539.157750375,-1.0595703125,-0.1717529296875,0.2213134765625,28.6865234375,-16.66259765625,0.0
37539.169444791,-1.1016845703125,-0.1717529296875,0.2213134765625,28.6865234375,-16.66259765625,0.0
37539.16955075,-1.1016845703125,-0.16943359375,0.2213134765625,28.6865234375,-16.66259765625,0.0
37539.1703185,-1.1016845703125,-0.16943359375,0.2216796875,28.6865234375,-16.66259765625,0.0
37539.198558708,-1.1016845703125,-0.16943359375,0.2216796875,28.6865234375,-21.484375,0.0
37539.200759125,-1.1270751953125,-0.16943359375,0.2216796875,28.6865234375,-21.484375,0.0
37539.200891958,-1.1270751953125,-0.1844482421875,0.2216796875,28.6865234375,-21.484375,0.0
37539.214949708,-1.1270751953125,-0.1844482421875,0.1982421875,28.6865234375,-21.484375,0.0
37539.215085125,-1.1270751953125,-0.1844482421875,0.1982421875,28.6865234375,-20.32470703125,0.0
37539.229994458,-1.1490478515625,-0.1844482421875,0.1982421875,28.6865234375,-20.32470703125,0.0
37539.230131708,-1.1490478515625,-0.160888671875,0.1982421875,28.6865234375,-20.32470703125,0.0
37539.260912083,-1.1490478515625,-0.160888671875,0.181396484375,28.6865234375,-20.32470703125,0.0
37539.261086416,-1.1490478515625,-0.160888671875,0.181396484375,28.6865234375,-16.66259765625,0.0
37539.276927666,-1.1484375,-0.160888671875,0.181396484375,28.6865234375,-16.66259765625,0.0
37539.276994416,-1.1484375,-0.1485595703125,0.181396484375,28.6865234375,-16.66259765625,0.0
37539.2770535,-1.1484375,-0.1485595703125,0.181396484375,67.93212890625,-16.66259765625,0.0
37539.277110833,-1.1484375,-0.1485595703125,0.181396484375,67.93212890625,-12.14599609375,0.0
37539.298036375,-1.1318359375,-0.1485595703125,0.181396484375,67.93212890625,-12.14599609375,0.0
37539.298194166,-1.1318359375,-0.1923828125,0.181396484375,67.93212890625,-12.14599609375,0.0
37539.298511833,-1.1318359375,-0.1923828125,0.1883544921875,67.93212890625,-12.14599609375,0.0
37539.309687166,-1.1318359375,-0.1923828125,0.1883544921875,67.93212890625,-8.23974609375,0.0
37539.3270895,-1.0958251953125,-0.1923828125,0.1883544921875,67.93212890625,-8.23974609375,0.0
37539.327144541,-1.0958251953125,-0.260986328125,0.1883544921875,67.93212890625,-8.23974609375,0.0
37539.327191583,-1.0958251953125,-0.260986328125,0.15185546875,67.93212890625,-8.23974609375,0.0
37539.337263291,-1.0958251953125,-0.260986328125,0.15185546875,67.93212890625,-1.708984375,0.0
37539.351061,-1.0640869140625,-0.260986328125,0.15185546875,67.93212890625,-1.708984375,0.0
37539.351246541,-1.0640869140625,-0.276123046875,0.15185546875,67.93212890625,-1.708984375,0.0
37539.351344291,-1.0640869140625,-0.276123046875,0.076416015625,67.93212890625,-1.708984375,0.0
37539.364954541,-1.0640869140625,-0.276123046875,0.076416015625,67.93212890625,2.99072265625,0.0
37539.39404375,-0.992919921875,-0.276123046875,0.076416015625,67.93212890625,2.99072265625,0.0
37539.3971515,-0.992919921875,-0.2479248046875,0.076416015625,67.93212890625,2.99072265625,0.0
37539.397390875,-0.992919921875,-0.2479248046875,0.109375,67.93212890625,2.99072265625,0.0
37539.397501333,-0.992919921875,-0.2479248046875,0.109375,67.93212890625,3.47900390625,0.0
37539.410250708,-0.9630126953125,-0.2479248046875,0.109375,67.93212890625,3.47900390625,0.0
37539.410317083,-0.9630126953125,-0.229736328125,0.109375,67.93212890625,3.47900390625,0.0
37539.427051875,-0.9630126953125,-0.229736328125,0.1793212890625,67.93212890625,3.47900390625,0.0
37539.4273405,-0.9630126953125,-0.229736328125,0.1793212890625,67.93212890625,4.8828125,0.0
37539.456542958,-0.87646484375,-0.229736328125,0.1793212890625,67.93212890625,4.8828125,0.0
37539.456749083,-0.87646484375,-0.18212890625,0.1793212890625,67.93212890625,4.8828125,0.0
37539.456846916,-0.87646484375,-0.18212890625,0.2437744140625,67.93212890625,4.8828125,0.0
37539.456972666,-0.87646484375,-0.18212890625,0.2437744140625,32.2265625,4.8828125,0.0
37539.501444083,-0.828125,-0.18212890625,0.2437744140625,32.2265625,4.8828125,0.0
37539.501681625,-0.828125,-0.16357421875,0.2437744140625,32.2265625,4.8828125,0.0
37539.501756541,-0.828125,-0.16357421875,0.2401123046875,32.2265625,4.8828125,0.0
37539.50289875,-0.828125,-0.16357421875,0.2401123046875,26.7333984375,4.8828125,0.0
37539.526892208,-0.828125,-0.1290283203125,0.2401123046875,26.7333984375,4.8828125,0.0
37539.526958916,-0.828125,-0.1290283203125,0.2158203125,26.7333984375,4.8828125,0.0
37539.527017083,-0.828125,-0.1290283203125,0.2158203125,15.56396484375,4.8828125,0.0
37539.544675541,-0.697998046875,-0.1290283203125,0.2158203125,15.56396484375,4.8828125,0.0
37539.54481075,-0.697998046875,-0.058837890625,0.2158203125,15.56396484375,4.8828125,0.0
37539.546310375,-0.697998046875,-0.058837890625,0.2509765625,15.56396484375,4.8828125,0.0
37539.546429041,-0.697998046875,-0.058837890625,0.2509765625,4.33349609375,4.8828125,0.0
37539.562412041,-0.67236328125,-0.058837890625,0.2509765625,4.33349609375,4.8828125,0.0
37539.5625865,-0.67236328125,-0.044921875,0.2509765625,4.33349609375,4.8828125,0.0
37539.562645083,-0.67236328125,-0.044921875,0.2518310546875,4.33349609375,4.8828125,0.0
37539.576688416,-0.67236328125,-0.044921875,0.2518310546875,4.33349609375,-30.82275390625,0.0
37539.593456166,-0.759765625,-0.044921875,0.2518310546875,4.33349609375,-30.82275390625,0.0
37539.593521666,-0.759765625,-0.0732421875,0.2518310546875,4.33349609375,-30.82275390625,0.0
37539.593580708,-0.759765625,-0.0732421875,0.1339111328125,4.33349609375,-30.82275390625,0.0
37539.609932958,-0.759765625,-0.0732421875,0.1339111328125,4.33349609375,-38.02490234375,0.0
37539.619969208,-0.8724365234375,-0.0732421875,0.1339111328125,4.33349609375,-38.02490234375,0.0
37539.626524416,-0.8724365234375,-0.01708984375,0.1339111328125,4.33349609375,-38.02490234375,0.0
37539.626624041,-0.8724365234375,-0.01708984375,0.052001953125,4.33349609375,-38.02490234375,0.0
37539.634893125,-0.8724365234375,-0.01708984375,0.052001953125,4.33349609375,-43.39599609375,0.0
37539.649652166,-0.9605712890625,-0.01708984375,0.052001953125,4.33349609375,-43.39599609375,0.0
37539.649786875,-0.9605712890625,-0.002685546875,0.052001953125,4.33349609375,-43.39599609375,0.0
37539.650696625,-0.9605712890625,-0.002685546875,0.00927734375,4.33349609375,-43.39599609375,0.0
37539.665585625,-0.9605712890625,-0.002685546875,0.00927734375,4.33349609375,-44.5556640625,0.0
37539.679583166,-1.0816650390625,-0.002685546875,0.00927734375,4.33349609375,-44.5556640625,0.0
37539.679706,-1.0816650390625,-0.0987548828125,0.00927734375,4.33349609375,-44.5556640625,0.0
37539.680259625,-1.0816650390625,-0.0987548828125,-0.1046142578125,4.33349609375,-44.5556640625,0.0
37539.694897625,-1.0816650390625,-0.0987548828125,-0.1046142578125,4.33349609375,-33.203125,0.0
37539.754880666,-1.1405029296875,-0.0987548828125,-0.1046142578125,4.33349609375,-33.203125,0.0
37539.755073541,-1.1405029296875,-0.09033203125,-0.1046142578125,4.33349609375,-33.203125,0.0
37539.755939666,-1.1405029296875,-0.09033203125,-0.18017578125,4.33349609375,-33.203125,0.0
37539.756115833,-1.1405029296875,-0.09033203125,-0.18017578125,4.33349609375,-20.69091796875,0.0
37539.777491416,-1.1405029296875,-0.0634765625,-0.18017578125,4.33349609375,-20.69091796875,0.0
37539.777593958,-1.1405029296875,-0.0634765625,-0.1494140625,4.33349609375,-20.69091796875,0.0
37539.77766725,-1.1405029296875,-0.0634765625,-0.1494140625,-30.57861328125,-20.69091796875,0.0
37539.784575666,-1.0980224609375,-0.0634765625,-0.1494140625,-30.57861328125,-20.69091796875,0.0
37539.784766208,-1.0980224609375,-0.1075439453125,-0.1494140625,-30.57861328125,-20.69091796875,0.0
37539.799879166,-1.0980224609375,-0.1075439453125,-0.1265869140625,-30.57861328125,-20.69091796875,0.0
37539.800068041,-1.0980224609375,-0.1075439453125,-0.1265869140625,-30.57861328125,8.36181640625,0.0
37539.815138541,-1.053466796875,-0.1075439453125,-0.1265869140625,-30.57861328125,8.36181640625,0.0
37539.815364083,-1.053466796875,-0.134765625,-0.1265869140625,-30.57861328125,8.36181640625,0.0
37539.815457541,-1.053466796875,-0.134765625,-0.07421875,-30.57861328125,8.36181640625,0.0
37539.861294708,-1.053466796875,-0.134765625,-0.07421875,-30.57861328125,17.39501953125,0.0
37539.905086791,-1.013916015625,-0.134765625,-0.07421875,-30.57861328125,17.39501953125,0.0
37539.905370791,-1.013916015625,-0.1494140625,-0.07421875,-30.57861328125,17.39501953125,0.0
37539.9203245,-1.013916015625,-0.1494140625,-0.0152587890625,-30.57861328125,17.39501953125,0.0
37539.9205845,-1.013916015625,-0.1494140625,-0.0152587890625,-30.57861328125,21.05712890625,0.0
37539.920716083,-1.013916015625,-0.165283203125,-0.0152587890625,-30.57861328125,21.05712890625,0.0
37539.921484125,-1.013916015625,-0.165283203125,0.0189208984375,-30.57861328125,21.05712890625,0.0
37539.966933916,-1.013916015625,-0.165283203125,0.0189208984375,-30.57861328125,17.51708984375,0.0
37539.967337333,-0.9718017578125,-0.165283203125,0.0189208984375,-30.57861328125,17.51708984375,0.0
37539.967440791,-0.9718017578125,-0.1453857421875,0.0189208984375,-30.57861328125,17.51708984375,0.0
37539.967771875,-0.9718017578125,-0.1453857421875,0.09814453125,-30.57861328125,17.51708984375,0.0
37539.994540583,-0.9718017578125,-0.1453857421875,0.09814453125,-30.57861328125,8.056640625,0.0
37539.994746875,-0.986328125,-0.1453857421875,0.09814453125,-30.57861328125,8.056640625,0.0
37539.994857041,-0.986328125,-0.1466064453125,0.09814453125,-30.57861328125,8.056640625,0.0
37539.995482,-0.986328125,-0.1466064453125,0.1007080078125,-30.57861328125,8.056640625,0.0
37540.011257625,-0.986328125,-0.1466064453125,0.1007080078125,-30.57861328125,1.708984375,0.0
37540.027667375,-1.00244140625,-0.1466064453125,0.1007080078125,-30.57861328125,1.708984375,0.0
37540.027740791,-1.00244140625,-0.146240234375,0.1007080078125,-30.57861328125,1.708984375,0.0
37540.027808375,-1.00244140625,-0.146240234375,0.1099853515625,-30.57861328125,1.708984375,0.0
37540.070051666,-1.00244140625,-0.146240234375,0.1099853515625,-30.57861328125,-1.40380859375,0.0
37540.070260458,-1.0286865234375,-0.146240234375,0.1099853515625,-30.57861328125,-1.40380859375,0.0
37540.070672166,-1.0286865234375,-0.136962890625,0.1099853515625,-30.57861328125,-1.40380859375,0.0
37540.072531041,-1.0286865234375,-0.136962890625,0.0919189453125,-30.57861328125,-1.40380859375,0.0
NEW_REP,,,,,,
37540.094515375,-1.0286865234375,-0.136962890625,0.0919189453125,-30.57861328125,-2.8076171875,0.0
37540.11541,-1.05322265625,-0.136962890625,0.0919189453125,-30.57861328125,-2.8076171875,0.0
37540.115585041,-1.05322265625,-0.11474609375,0.0919189453125,-30.57861328125,-2.8076171875,0.0
37540.116726083,-1.05322265625,-0.11474609375,0.09326171875,-30.57861328125,-2.8076171875,0.0
37540.116895708,-1.05322265625,-0.11474609375,0.09326171875,-1.77001953125,-2.8076171875,0.0
37540.129566041,-1.0736083984375,-0.11474609375,0.09326171875,-1.77001953125,-2.8076171875,0.0
37540.129738291,-1.0736083984375,-0.1192626953125,0.09326171875,-1.77001953125,-2.8076171875,0.0
37540.159990583,-1.0736083984375,-0.1192626953125,0.0948486328125,-1.77001953125,-2.8076171875,0.0
37540.16017325,-1.0736083984375,-0.1192626953125,0.0948486328125,-1.77001953125,-0.54931640625,0.0
37540.161046333,-1.09716796875,-0.1192626953125,0.0948486328125,-1.77001953125,-0.54931640625,0.0
37540.161240416,-1.09716796875,-0.1142578125,0.0948486328125,-1.77001953125,-0.54931640625,0.0
37540.175179375,-1.09716796875,-0.1142578125,0.0948486328125,-1.77001953125,-0.244140625,0.0
37540.205164291,-1.1312255859375,-0.1142578125,0.0948486328125,-1.77001953125,-0.244140625,0.0
37540.21111525,-1.1312255859375,-0.13037109375,0.0948486328125,-1.77001953125,-0.244140625,0.0
37540.211360958,-1.1312255859375,-0.13037109375,0.1014404296875,-1.77001953125,-0.244140625,0.0
37540.211432041,-1.1312255859375,-0.13037109375,0.1014404296875,5.79833984375,-0.244140625,0.0
37540.220254041,-1.1807861328125,-0.13037109375,0.1014404296875,5.79833984375,-0.244140625,0.0
37540.22043025,-1.1807861328125,-0.1419677734375,0.1014404296875,5.79833984375,-0.244140625,0.0
37540.221183958,-1.1807861328125,-0.1419677734375,0.1114501953125,5.79833984375,-0.244140625,0.0
37540.234895583,-1.1807861328125,-0.1419677734375,0.1114501953125,5.79833984375,-4.69970703125,0.0
37540.249751125,-1.3076171875,-0.1419677734375,0.1114501953125,5.79833984375,-4.69970703125,0.0
37540.249919791,-1.3076171875,-0.1627197265625,0.1114501953125,5.79833984375,-4.69970703125,0.0
37540.25043,-1.3076171875,-0.1627197265625,0.0953369140625,5.79833984375,-4.69970703125,0.0
37540.265017416,-1.3076171875,-0.1627197265625,0.0953369140625,5.79833984375,-6.9580078125,0.0
37540.2796355,-1.3433837890625,-0.1627197265625,0.0953369140625,5.79833984375,-6.9580078125,0.0
37540.279799125,-1.3433837890625,-0.1976318359375,0.0953369140625,5.79833984375,-6.9580078125,0.0
37540.294888666,-1.3433837890625,-0.1976318359375,0.1256103515625,5.79833984375,-6.9580078125,0.0
37540.295040375,-1.3433837890625,-0.1976318359375,0.1256103515625,5.79833984375,-7.14111328125,0.0
37540.317234875,-1.3543701171875,-0.1976318359375,0.1256103515625,5.79833984375,-7.14111328125,0.0
37540.317351041,-1.3543701171875,-0.221923828125,0.1256103515625,5.79833984375,-7.14111328125,0.0
37540.317415375,-1.3543701171875,-0.221923828125,0.118896484375,5.79833984375,-7.14111328125,0.0
37540.326509583,-1.3543701171875,-0.221923828125,0.118896484375,5.79833984375,-6.7138671875,0.0
37540.344459,-1.3426513671875,-0.221923828125,0.118896484375,5.79833984375,-6.7138671875,0.0
37540.34453725,-1.3426513671875,-0.2406005859375,0.118896484375,5.79833984375,-6.7138671875,0.0
37540.344607166,-1.3426513671875,-0.2406005859375,0.083251953125,5.79833984375,-6.7138671875,0.0
37540.35487175,-1.3426513671875,-0.2406005859375,0.083251953125,5.79833984375,-5.9814453125,0.0
37540.370226958,-1.267333984375,-0.2406005859375,0.083251953125,5.79833984375,-5.9814453125,0.0
37540.370410833,-1.267333984375,-0.2471923828125,0.083251953125,5.79833984375,-5.9814453125,0.0
37540.384572458,-1.267333984375,-0.2471923828125,0.066162109375,5.79833984375,-5.9814453125,0.0
37540.3847315,-1.267333984375,-0.2471923828125,0.066162109375,5.79833984375,-6.77490234375,0.0
37540.400599125,-1.169677734375,-0.2471923828125,0.066162109375,5.79833984375,-6.77490234375,0.0
37540.400792208,-1.169677734375,-0.237548828125,0.066162109375,5.79833984375,-6.77490234375,0.0
37540.400897916,-1.169677734375,-0.237548828125,0.0247802734375,5.79833984375,-6.77490234375,0.0
37540.415888041,-1.169677734375,-0.237548828125,0.0247802734375,5.79833984375,-8.4228515625,0.0
37540.429527916,-1.1058349609375,-0.237548828125,0.0247802734375,5.79833984375,-8.4228515625,0.0
37540.429677458,-1.1058349609375,-0.239990234375,0.0247802734375,5.79833984375,-8.4228515625,0.0
37540.4307635,-1.1058349609375,-0.239990234375,-0.0379638671875,5.79833984375,-8.4228515625,0.0
37540.445219791,-1.1058349609375,-0.239990234375,-0.0379638671875,5.79833984375,-9.033203125,0.0
37540.460654791,-1.037109375,-0.239990234375,-0.0379638671875,5.79833984375,-9.033203125,0.0
37540.460731791,-1.037109375,-0.2247314453125,-0.0379638671875,5.79833984375,-9.033203125,0.0
37540.477440625,-1.037109375,-0.2247314453125,-0.0821533203125,5.79833984375,-9.033203125,0.0
37540.477514166,-1.037109375,-0.2247314453125,-0.0821533203125,5.79833984375,-7.38525390625,0.0
37540.494095916,-0.8885498046875,-0.2247314453125,-0.0821533203125,5.79833984375,-7.38525390625,0.0
37540.494172,-0.8885498046875,-0.1802978515625,-0.0821533203125,5.79833984375,-7.38525390625,0.0
37540.50505275,-0.8885498046875,-0.1802978515625,-0.0546875,5.79833984375,-7.38525390625,0.0
37540.510707583,-0.8885498046875,-0.1802978515625,-0.0546875,5.79833984375,-1.46484375,0.0
37540.520028083,-0.894775390625,-0.1802978515625,-0.0546875,5.79833984375,-1.46484375,0.0
37540.55021875,-0.894775390625,-0.152099609375,-0.0546875,5.79833984375,-1.46484375,0.0
37540.550312458,-0.894775390625,-0.152099609375,-0.0882568359375,5.79833984375,-1.46484375,0.0
37540.580027166,-0.894775390625,-0.152099609375,-0.0882568359375,5.79833984375,0.30517578125,0.0
37540.580282083,-0.8309326171875,-0.152099609375,-0.0882568359375,5.79833984375,0.30517578125,0.0
37540.6111775,-0.8309326171875,-0.152099609375,-0.0882568359375,0.30517578125,0.30517578125,0.0
37540.611258333,-0.8309326171875,-0.152099609375,-0.0882568359375,0.30517578125,5.2490234375,0.0
37540.611329791,-0.8309326171875,-0.117919921875,-0.0882568359375,0.30517578125,5.2490234375,0.0
37540.628112875,-0.8309326171875,-0.117919921875,-0.054443359375,0.30517578125,5.2490234375,0.0
37540.62819075,-0.8309326171875,-0.117919921875,-0.054443359375,0.30517578125,9.27734375,0.0
37540.654997166,-0.9462890625,-0.117919921875,-0.054443359375,0.30517578125,9.27734375,0.0
37540.669956458,-0.9462890625,-0.1202392578125,-0.054443359375,0.30517578125,9.27734375,0.0
37540.700266208,-0.9462890625,-0.1202392578125,0.047119140625,0.30517578125,9.27734375,0.0
37540.700526708,-0.9462890625,-0.1202392578125,0.047119140625,17.08984375,9.27734375,0.0
37540.700655333,-0.980224609375,-0.1202392578125,0.047119140625,17.08984375,9.27734375,0.0
37540.727803833,-0.980224609375,-0.1202392578125,0.047119140625,28.6865234375,9.27734375,0.0
37540.727973458,-0.9237060546875,-0.1202392578125,0.047119140625,28.6865234375,9.27734375,0.0
37540.728045916,-0.9237060546875,-0.204345703125,0.047119140625,28.6865234375,9.27734375,0.0
37540.7281145,-0.9237060546875,-0.204345703125,0.1114501953125,28.6865234375,9.27734375,0.0
37540.744739541,-0.9237060546875,-0.204345703125,0.1114501953125,28.6865234375,12.02392578125,0.0
37540.744915041,-1.0013427734375,-0.204345703125,0.1114501953125,28.6865234375,12.02392578125,0.0
37540.745635416,-1.0013427734375,-0.1910400390625,0.1114501953125,28.6865234375,12.02392578125,0.0
37540.745778333,-1.0013427734375,-0.1910400390625,0.0118408203125,28.6865234375,12.02392578125,0.0
37540.760762,-1.0013427734375,-0.1910400390625,0.0118408203125,28.6865234375,14.2822265625,0.0
37540.835522833,-0.83203125,-0.1910400390625,0.0118408203125,28.6865234375,14.2822265625,0.0
37540.835993625,-0.83203125,-0.1407470703125,0.0118408203125,28.6865234375,14.2822265625,0.0
37540.836254791,-0.83203125,-0.1407470703125,0.150390625,28.6865234375,14.2822265625,0.0
37540.83823,-0.83203125,-0.1407470703125,0.150390625,28.6865234375,20.263671875,0.0
37540.86186925,-0.83203125,-0.17822265625,0.150390625,28.6865234375,20.263671875,0.0
37540.861965541,-0.83203125,-0.17822265625,-0.0196533203125,28.6865234375,20.263671875,0.0
37540.864928875,-0.83203125,-0.17822265625,-0.0196533203125,-5.67626953125,20.263671875,0.0
37540.880694,-0.8779296875,-0.17822265625,-0.0196533203125,-5.67626953125,20.263671875,0.0
37540.8808935,-0.8779296875,-0.05517578125,-0.0196533203125,-5.67626953125,20.263671875,0.0
37540.895917041,-0.8779296875,-0.05517578125,0.0987548828125,-5.67626953125,20.263671875,0.0
37540.89609,-0.8779296875,-0.05517578125,0.0987548828125,-5.67626953125,35.400390625,0.0
37540.941431625,-0.6494140625,-0.05517578125,0.0987548828125,-5.67626953125,35.400390625,0.0
37540.941652416,-0.6494140625,-0.1766357421875,0.0987548828125,-5.67626953125,35.400390625,0.0
37540.94170225,-0.6494140625,-0.1766357421875,0.129638671875,-5.67626953125,35.400390625,0.0
37540.941746583,-0.6494140625,-0.1766357421875,0.129638671875,74.3408203125,35.400390625,0.0
37540.959261208,-0.6494140625,-0.11279296875,0.129638671875,74.3408203125,35.400390625,0.0
37540.959301875,-0.6494140625,-0.11279296875,0.49072265625,74.3408203125,35.400390625,0.0
37540.9764015,-0.6494140625,-0.11279296875,0.49072265625,-3.72314453125,35.400390625,0.0
37540.987283083,-0.658203125,-0.11279296875,0.49072265625,-3.72314453125,35.400390625,0.0
37540.9925045,-0.658203125,-0.208740234375,0.49072265625,-3.72314453125,35.400390625,0.0
37541.014644125,-0.658203125,-0.208740234375,0.2940673828125,-3.72314453125,35.400390625,0.0
37541.016643625,-0.658203125,-0.208740234375,0.2940673828125,-3.72314453125,18.00537109375,0.0
37541.016747416,-0.6597900390625,-0.208740234375,0.2940673828125,-3.72314453125,18.00537109375,0.0
37541.016787666,-0.6597900390625,-0.4322509765625,0.2940673828125,-3.72314453125,18.00537109375,0.0
37541.059623208,-0.6597900390625,-0.4322509765625,0.2940673828125,17.88330078125,18.00537109375,0.0
37541.074580291,-0.6597900390625,-0.4322509765625,0.2940673828125,17.88330078125,-4.0283203125,0.0
37541.090356333,-0.746826171875,-0.4322509765625,0.2940673828125,17.88330078125,-4.0283203125,0.0
37541.090498083,-0.746826171875,-0.3861083984375,0.2940673828125,17.88330078125,-4.0283203125,0.0
37541.090561291,-0.746826171875,-0.3861083984375,0.2940673828125,17.88330078125,-10.07080078125,0.0
37541.109941416,-0.753662109375,-0.3861083984375,0.2940673828125,17.88330078125,-10.07080078125,0.0
37541.109991541,-0.753662109375,-0.3797607421875,0.2940673828125,17.88330078125,-10.07080078125,0.0
37541.110034791,-0.753662109375,-0.3797607421875,0.2249755859375,17.88330078125,-10.07080078125,0.0
37541.119729166,-0.7060546875,-0.3797607421875,0.2249755859375,17.88330078125,-10.07080078125,0.0
37541.134584875,-0.7060546875,-0.3570556640625,0.2249755859375,17.88330078125,-10.07080078125,0.0
37541.13471375,-0.7060546875,-0.3570556640625,0.1915283203125,17.88330078125,-10.07080078125,0.0
37541.135501666,-0.7060546875,-0.3570556640625,0.1915283203125,17.88330078125,-18.12744140625,0.0
37541.149493208,-0.6693115234375,-0.3570556640625,0.1915283203125,17.88330078125,-18.12744140625,0.0
37541.149618958,-0.6693115234375,-0.3519287109375,0.1915283203125,17.88330078125,-18.12744140625,0.0
37541.150410041,-0.6693115234375,-0.3519287109375,0.1685791015625,17.88330078125,-18.12744140625,0.0
37541.19497725,-0.6693115234375,-0.3519287109375,0.1685791015625,17.88330078125,-13.85498046875,0.0
37541.254797458,-0.6407470703125,-0.3519287109375,0.1685791015625,17.88330078125,-13.85498046875,0.0
37541.25499925,-0.6407470703125,-0.325927734375,0.1685791015625,17.88330078125,-13.85498046875,0.0
37541.284069833,-0.6407470703125,-0.325927734375,0.176025390625,17.88330078125,-13.85498046875,0.0
37541.315117583,-0.6407470703125,-0.325927734375,0.176025390625,17.88330078125,-9.521484375,0.0
37541.31535575,-0.6407470703125,-0.3218994140625,0.176025390625,17.88330078125,-9.521484375,0.0
37541.31626475,-0.6407470703125,-0.3218994140625,0.1627197265625,17.88330078125,-9.521484375,0.0
37541.316509291,-0.6407470703125,-0.3218994140625,0.1627197265625,17.88330078125,-11.3525390625,0.0
37541.329803708,-0.6407470703125,-0.2509765625,0.1627197265625,17.88330078125,-11.3525390625,0.0
37541.329987333,-0.6407470703125,-0.2509765625,0.102294921875,17.88330078125,-11.3525390625,0.0
37541.346321666,-0.6407470703125,-0.2509765625,0.102294921875,8.9111328125,-11.3525390625,0.0
37541.361931583,-0.8961181640625,-0.2509765625,0.102294921875,8.9111328125,-11.3525390625,0.0
37541.362033958,-0.8961181640625,-0.2039794921875,0.102294921875,8.9111328125,-11.3525390625,0.0
37541.362120291,-0.8961181640625,-0.2039794921875,0.1268310546875,8.9111328125,-11.3525390625,0.0
37541.378172875,-0.8961181640625,-0.2039794921875,0.1268310546875,8.9111328125,0.48828125,0.0
37541.404975875,-0.955322265625,-0.2039794921875,0.1268310546875,8.9111328125,0.48828125,0.0
37541.411636333,-0.955322265625,-0.1400146484375,0.1268310546875,8.9111328125,0.48828125,0.0
37541.411731958,-0.955322265625,-0.1400146484375,0.1436767578125,8.9111328125,0.48828125,0.0
37541.411815916,-0.955322265625,-0.1400146484375,0.1436767578125,1.03759765625,0.48828125,0.0
37541.43488725,-1.0167236328125,-0.1400146484375,0.1436767578125,1.03759765625,0.48828125,0.0
37541.435091291,-1.0167236328125,-0.1351318359375,0.1436767578125,1.03759765625,0.48828125,0.0
37541.435852625,-1.0167236328125,-0.1351318359375,0.126220703125,1.03759765625,0.48828125,0.0
37541.436062166,-1.0167236328125,-0.1351318359375,0.126220703125,12.26806640625,0.48828125,0.0
37541.465462625,-0.9459228515625,-0.1351318359375,0.126220703125,12.26806640625,0.48828125,0.0
37541.465765666,-0.9459228515625,-0.1331787109375,0.126220703125,12.26806640625,0.48828125,0.0
37541.465930916,-0.9459228515625,-0.1331787109375,0.142333984375,12.26806640625,0.48828125,0.0
37541.478335083,-0.9459228515625,-0.1331787109375,0.142333984375,12.26806640625,6.2255859375,0.0
37541.4798645,-1.0389404296875,-0.1331787109375,0.142333984375,12.26806640625,6.2255859375,0.0
37541.49536825,-1.0389404296875,-0.1292724609375,0.142333984375,12.26806640625,6.2255859375,0.0
37541.49546675,-1.0389404296875,-0.1292724609375,0.1234130859375,12.26806640625,6.2255859375,0.0
37541.496403791,-1.0389404296875,-0.1292724609375,0.1234130859375,12.26806640625,9.27734375,0.0
37541.525145708,-0.956787109375,-0.1292724609375,0.1234130859375,12.26806640625,9.27734375,0.0
37541.525343625,-0.956787109375,-0.0921630859375,0.1234130859375,12.26806640625,9.27734375,0.0
37541.545264333,-0.956787109375,-0.0921630859375,0.15478515625,12.26806640625,9.27734375,0.0
37541.5453725,-0.956787109375,-0.0921630859375,0.15478515625,12.26806640625,6.8359375,0.0
37541.5454585,-1.0306396484375,-0.0921630859375,0.15478515625,12.26806640625,6.8359375,0.0
37541.545540208,-1.0306396484375,-0.101318359375,0.15478515625,12.26806640625,6.8359375,0.0
37541.555016125,-1.0306396484375,-0.101318359375,0.15478515625,12.26806640625,3.60107421875,0.0
37541.585132708,-0.941650390625,-0.101318359375,0.15478515625,12.26806640625,3.60107421875,0.0
37541.585280125,-0.941650390625,-0.07763671875,0.15478515625,12.26806640625,3.60107421875,0.0
37541.585642666,-0.941650390625,-0.07763671875,0.2093505859375,12.26806640625,3.60107421875,0.0
37541.611671166,-0.941650390625,-0.07763671875,0.2093505859375,12.26806640625,2.38037109375,0.0
37541.629756083,-1.0560302734375,-0.07763671875,0.2093505859375,12.26806640625,2.38037109375,0.0
37541.629908083,-1.0560302734375,-0.043701171875,0.2093505859375,12.26806640625,2.38037109375,0.0
37541.630984291,-1.0560302734375,-0.043701171875,0.128173828125,12.26806640625,2.38037109375,0.0
37541.631156666,-1.0560302734375,-0.043701171875,0.128173828125,-6.7138671875,2.38037109375,0.0
37541.644890166,-1.0570068359375,-0.043701171875,0.128173828125,-6.7138671875,2.38037109375,0.0
37541.644965291,-1.0570068359375,-0.0155029296875,0.128173828125,-6.7138671875,2.38037109375,0.0
37541.647418041,-1.0570068359375,-0.0155029296875,0.14892578125,-6.7138671875,2.38037109375,0.0
37541.661381958,-1.0570068359375,-0.0155029296875,0.14892578125,-6.7138671875,-4.39453125,0.0
37541.678143041,-0.98193359375,-0.0155029296875,0.14892578125,-6.7138671875,-4.39453125,0.0
37541.678217166,-0.98193359375,0.0130615234375,0.14892578125,-6.7138671875,-4.39453125,0.0
37541.678286375,-0.98193359375,0.0130615234375,0.13427734375,-6.7138671875,-4.39453125,0.0
37541.69470925,-0.98193359375,0.0130615234375,0.13427734375,-6.7138671875,-5.67626953125,0.0
37541.720139208,-1.03271484375,0.0130615234375,0.13427734375,-6.7138671875,-5.67626953125,0.0
37541.73491725,-1.03271484375,0.0286865234375,0.13427734375,-6.7138671875,-5.67626953125,0.0
37541.735088,-1.03271484375,0.0286865234375,0.0946044921875,-6.7138671875,-5.67626953125,0.0
37541.735997458,-1.03271484375,0.0286865234375,0.0946044921875,-6.7138671875,-7.14111328125,0.0
37541.736185291,-1.3023681640625,0.0286865234375,0.0946044921875,-6.7138671875,-7.14111328125,0.0
37541.751076291,-1.3023681640625,0.0286865234375,0.0946044921875,4.33349609375,-7.14111328125,0.0
37541.751249458,-1.3023681640625,0.0286865234375,0.0946044921875,4.33349609375,-3.23486328125,0.0
37541.764835,-1.3311767578125,0.0286865234375,0.0946044921875,4.33349609375,-3.23486328125,0.0
37541.795238,-1.3311767578125,-0.019287109375,0.0946044921875,4.33349609375,-3.23486328125,0.0
37541.795421416,-1.3311767578125,-0.019287109375,0.103271484375,4.33349609375,-3.23486328125,0.0
37541.796599708,-1.3311767578125,-0.019287109375,0.103271484375,4.33349609375,1.64794921875,0.0
37541.796690041,-1.3970947265625,-0.019287109375,0.103271484375,4.33349609375,1.64794921875,0.0
37541.811089375,-1.3970947265625,-0.019287109375,0.103271484375,-12.939453125,1.64794921875,0.0
37541.811169458,-1.3970947265625,-0.019287109375,0.103271484375,-12.939453125,9.033203125,0.0
37541.827980916,-1.3306884765625,-0.019287109375,0.103271484375,-12.939453125,9.033203125,0.0
37541.828059333,-1.3306884765625,0.0389404296875,0.103271484375,-12.939453125,9.033203125,0.0
37541.828129833,-1.3306884765625,0.0389404296875,0.2098388671875,-12.939453125,9.033203125,0.0
37541.8440245,-1.3306884765625,0.0389404296875,0.2098388671875,-12.939453125,13.36669921875,0.0
37541.860866875,-1.2647705078125,0.0389404296875,0.2098388671875,-12.939453125,13.36669921875,0.0
37541.860950916,-1.2647705078125,0.0443115234375,0.2098388671875,-12.939453125,13.36669921875,0.0
37541.861023208,-1.2647705078125,0.0443115234375,0.2308349609375,-12.939453125,13.36669921875,0.0
37541.869512166,-1.2647705078125,0.0443115234375,0.2308349609375,-12.939453125,14.0380859375,0.0
37541.900085375,-1.2352294921875,0.0443115234375,0.2308349609375,-12.939453125,14.0380859375,0.0
37541.900173458,-1.2352294921875,0.0096435546875,0.2308349609375,-12.939453125,14.0380859375,0.0
37541.901476583,-1.2352294921875,0.0096435546875,0.2432861328125,-12.939453125,14.0380859375,0.0
37541.901638666,-1.2352294921875,0.0096435546875,0.2432861328125,-12.939453125,17.39501953125,0.0
37541.929693958,-1.1357421875,0.0096435546875,0.2432861328125,-12.939453125,17.39501953125,0.0
37541.929837625,-1.1357421875,0.054443359375,0.2432861328125,-12.939453125,17.39501953125,0.0
37541.960412791,-1.1357421875,0.054443359375,0.283935546875,-12.939453125,17.39501953125,0.0
37541.960616958,-1.1357421875,0.054443359375,0.283935546875,-5.859375,17.39501953125,0.0
37541.96212725,-1.0911865234375,0.054443359375,0.283935546875,-5.859375,17.39501953125,0.0
37541.962388,-1.0911865234375,0.07373046875,0.283935546875,-5.859375,17.39501953125,0.0
37541.977324791,-1.0911865234375,0.07373046875,0.283935546875,-5.859375,14.70947265625,0.0
37542.0052695,-1.01123046875,0.07373046875,0.283935546875,-5.859375,14.70947265625,0.0
37542.010684,-1.01123046875,0.0584716796875,0.283935546875,-5.859375,14.70947265625,0.0
37542.010803833,-1.01123046875,0.0584716796875,0.2779541015625,-5.859375,14.70947265625,0.0
37542.010876583,-1.01123046875,0.0584716796875,0.2779541015625,0.0,14.70947265625,0.0
37542.019608458,-0.99365234375,0.0584716796875,0.2779541015625,0.0,14.70947265625,0.0
37542.019779083,-0.99365234375,0.0599365234375,0.2779541015625,0.0,14.70947265625,0.0
37542.020415833,-0.99365234375,0.0599365234375,0.2813720703125,0.0,14.70947265625,0.0
37542.035445,-0.99365234375,0.0599365234375,0.2813720703125,0.0,0.244140625,0.0
37542.050944875,-0.986328125,0.0599365234375,0.2813720703125,0.0,0.244140625,0.0
37542.051088125,-0.986328125,0.065185546875,0.2813720703125,0.0,0.244140625,0.0
37542.051161541,-0.986328125,0.065185546875,0.2669677734375,0.0,0.244140625,0.0
37542.065160333,-0.986328125,0.065185546875,0.2669677734375,0.0,-3.35693359375,0.0
37542.079846875,-0.985107421875,0.065185546875,0.2669677734375,0.0,-3.35693359375,0.0
37542.080012583,-0.985107421875,0.0538330078125,0.2669677734375,0.0,-3.35693359375,0.0
37542.081821708,-0.985107421875,0.0538330078125,0.248291015625,0.0,-3.35693359375,0.0
37542.095387541,-0.985107421875,0.0538330078125,0.248291015625,0.0,-4.7607421875,0.0
37542.110548166,-1.024658203125,0.0538330078125,0.248291015625,0.0,-4.7607421875,0.0
37542.110629541,-1.024658203125,0.03466796875,0.248291015625,0.0,-4.7607421875,0.0
37542.110791958,-1.024658203125,0.03466796875,0.2420654296875,0.0,-4.7607421875,0.0
37542.12776425,-1.024658203125,0.03466796875,0.2420654296875,0.0,-4.39453125,0.0
37542.143901166,-1.0579833984375,0.03466796875,0.2420654296875,0.0,-4.39453125,0.0
37542.143975541,-1.0579833984375,0.0626220703125,0.2420654296875,0.0,-4.39453125,0.0
37542.1440425,-1.0579833984375,0.0626220703125,0.2435302734375,0.0,-4.39453125,0.0
NEW_REP,,,,,,
37542.160954916,-1.0579833984375,0.0626220703125,0.2435302734375,0.0,-3.90625,0.0
37542.16979525,-1.0987548828125,0.0626220703125,0.2435302734375,0.0,-3.90625,0.0
37542.169930041,-1.0987548828125,0.0560302734375,0.2435302734375,0.0,-3.90625,0.0
37542.170666416,-1.0987548828125,0.0560302734375,0.2337646484375,0.0,-3.90625,0.0
37542.185029416,-1.0987548828125,0.0560302734375,0.2337646484375,0.0,-3.35693359375,0.0
37542.21538875,-1.15234375,0.0560302734375,0.2337646484375,0.0,-3.35693359375,0.0
37542.245086791,-1.15234375,0.045166015625,0.2337646484375,0.0,-3.35693359375,0.0
37542.245256291,-1.15234375,0.045166015625,0.246337890625,0.0,-3.35693359375,0.0
37542.245958458,-1.15234375,0.045166015625,0.246337890625,0.0,-2.25830078125,0.0
37542.246139291,-1.152587890625,0.045166015625,0.246337890625,0.0,-2.25830078125,0.0
37542.260242875,-1.152587890625,0.045166015625,0.246337890625,2.25830078125,-2.25830078125,0.0
37542.260414666,-1.152587890625,0.045166015625,0.246337890625,2.25830078125,-2.9296875,0.0
37542.290318916,-1.1636962890625,0.045166015625,0.246337890625,2.25830078125,-2.9296875,0.0
37542.290548458,-1.1636962890625,-0.0452880859375,0.246337890625,2.25830078125,-2.9296875,0.0
37542.311355208,-1.1636962890625,-0.0452880859375,0.25439453125,2.25830078125,-2.9296875,0.0
37542.311442833,-1.1636962890625,-0.0452880859375,0.25439453125,14.5263671875,-2.9296875,0.0
37542.311511958,-1.1611328125,-0.0452880859375,0.25439453125,14.5263671875,-2.9296875,0.0
37542.311668666,-1.1611328125,-0.080810546875,0.25439453125,14.5263671875,-2.9296875,0.0
37542.320502541,-1.1611328125,-0.080810546875,0.25439453125,14.5263671875,-12.26806640625,0.0
37542.349776833,-1.1697998046875,-0.080810546875,0.25439453125,14.5263671875,-12.26806640625,0.0
37542.354054041,-1.1697998046875,-0.150634765625,0.25439453125,14.5263671875,-12.26806640625,0.0
37542.365088125,-1.1697998046875,-0.150634765625,0.2213134765625,14.5263671875,-12.26806640625,0.0
37542.369198291,-1.1697998046875,-0.150634765625,0.2213134765625,10.986328125,-12.26806640625,0.0
37542.369455875,-1.1651611328125,-0.150634765625,0.2213134765625,10.986328125,-12.26806640625,0.0
37542.369541416,-1.1651611328125,-0.1820068359375,0.2213134765625,10.986328125,-12.26806640625,0.0
37542.395431875,-1.1651611328125,-0.1820068359375,0.2213134765625,10.986328125,-16.54052734375,0.0
37542.428275875,-1.129638671875,-0.1820068359375,0.2213134765625,10.986328125,-16.54052734375,0.0
37542.428358583,-1.129638671875,-0.2529296875,0.2213134765625,10.986328125,-16.54052734375,0.0
37542.428430291,-1.129638671875,-0.2529296875,0.1717529296875,10.986328125,-16.54052734375,0.0
37542.428506083,-1.129638671875,-0.2529296875,0.1717529296875,10.986328125,-18.24951171875,0.0
37542.453729791,-1.0850830078125,-0.2529296875,0.1717529296875,10.986328125,-18.24951171875,0.0
37542.45448175,-1.0850830078125,-0.293701171875,0.1717529296875,10.986328125,-18.24951171875,0.0
37542.4609965,-1.0850830078125,-0.293701171875,0.128662109375,10.986328125,-18.24951171875,0.0
37542.461089375,-1.0850830078125,-0.293701171875,0.128662109375,15.7470703125,-18.24951171875,0.0
37542.470255958,-1.059814453125,-0.293701171875,0.128662109375,15.7470703125,-18.24951171875,0.0
37542.470392416,-1.059814453125,-0.333251953125,0.128662109375,15.7470703125,-18.24951171875,0.0
37542.470909708,-1.059814453125,-0.333251953125,0.096435546875,15.7470703125,-18.24951171875,0.0
37542.487196791,-1.059814453125,-0.333251953125,0.096435546875,15.7470703125,-15.5029296875,0.0
37542.499739,-1.0018310546875,-0.333251953125,0.096435546875,15.7470703125,-15.5029296875,0.0
37542.499812875,-1.0018310546875,-0.30224609375,0.096435546875,15.7470703125,-15.5029296875,0.0
37542.501351125,-1.0018310546875,-0.30224609375,0.148193359375,15.7470703125,-15.5029296875,0.0
37542.515034916,-1.0018310546875,-0.30224609375,0.148193359375,15.7470703125,-12.26806640625,0.0
37542.529789583,-0.9464111328125,-0.30224609375,0.148193359375,15.7470703125,-12.26806640625,0.0
37542.529947541,-0.9464111328125,-0.3116455078125,0.148193359375,15.7470703125,-12.26806640625,0.0
37542.560052416,-0.9464111328125,-0.3116455078125,0.138671875,15.7470703125,-12.26806640625,0.0
37542.560233291,-0.9464111328125,-0.3116455078125,0.138671875,15.7470703125,-11.23046875,0.0
37542.561367416,-0.852294921875,-0.3116455078125,0.138671875,15.7470703125,-11.23046875,0.0
37542.561519916,-0.852294921875,-0.2969970703125,0.138671875,15.7470703125,-11.23046875,0.0
37542.604889166,-0.852294921875,-0.2969970703125,0.138671875,17.88330078125,-11.23046875,0.0
37542.605079458,-0.852294921875,-0.2969970703125,0.138671875,17.88330078125,-12.0849609375,0.0
37542.606405166,-0.826416015625,-0.2969970703125,0.138671875,17.88330078125,-12.0849609375,0.0
37542.627613708,-0.826416015625,-0.2969970703125,0.06103515625,17.88330078125,-12.0849609375,0.0
37542.627683125,-0.826416015625,-0.2969970703125,0.06103515625,0.06103515625,-12.0849609375,0.0
37542.650053875,-0.826416015625,-0.2969970703125,0.06103515625,0.06103515625,-8.97216796875,0.0
37542.650201583,-0.8590087890625,-0.2969970703125,0.06103515625,0.06103515625,-8.97216796875,0.0
37542.650818833,-0.8590087890625,-0.2303466796875,0.06103515625,0.06103515625,-8.97216796875,0.0
37542.650956791,-0.8590087890625,-0.2303466796875,0.0740966796875,0.06103515625,-8.97216796875,0.0
37542.695305708,-0.8590087890625,-0.2303466796875,0.0740966796875,0.06103515625,-1.0986328125,0.0
37542.695564666,-0.85595703125,-0.2303466796875,0.0740966796875,0.06103515625,-1.0986328125,0.0
37542.695692,-0.85595703125,-0.2081298828125,0.0740966796875,0.06103515625,-1.0986328125,0.0
37542.696584416,-0.85595703125,-0.2081298828125,0.13671875,0.06103515625,-1.0986328125,0.0
37542.727382791,-0.85595703125,-0.2081298828125,0.13671875,0.06103515625,4.8828125,0.0
37542.755290583,-0.8687744140625,-0.2081298828125,0.13671875,0.06103515625,4.8828125,0.0
37542.785346125,-0.8687744140625,-0.2379150390625,0.13671875,0.06103515625,4.8828125,0.0
37542.785577041,-0.8687744140625,-0.2379150390625,0.16845703125,0.06103515625,4.8828125,0.0
37542.785702875,-0.8687744140625,-0.2379150390625,0.16845703125,0.06103515625,5.4931640625,0.0
37542.786235291,-0.967041015625,-0.2379150390625,0.16845703125,0.06103515625,5.4931640625,0.0
37542.811198625,-0.967041015625,-0.2379150390625,0.16845703125,21.1181640625,5.4931640625,0.0
37542.81127575,-0.967041015625,-0.2379150390625,0.16845703125,21.1181640625,1.40380859375,0.0
37542.8449765,-0.9825439453125,-0.2379150390625,0.16845703125,21.1181640625,1.40380859375,0.0
37542.846921708,-0.9825439453125,-0.2840576171875,0.16845703125,21.1181640625,1.40380859375,0.0
37542.847137583,-0.9825439453125,-0.2840576171875,0.135498046875,21.1181640625,1.40380859375,0.0
37542.847242541,-0.9825439453125,-0.2840576171875,0.135498046875,21.1181640625,2.62451171875,0.0
37542.860910541,-0.9825439453125,-0.3348388671875,0.135498046875,21.1181640625,2.62451171875,0.0
37542.860977125,-0.9825439453125,-0.3348388671875,0.152099609375,21.1181640625,2.62451171875,0.0
37542.87803625,-0.9825439453125,-0.3348388671875,0.152099609375,-6.7138671875,2.62451171875,0.0
37542.905002125,-1.0050048828125,-0.3348388671875,0.152099609375,-6.7138671875,2.62451171875,0.0
37542.910730875,-1.0050048828125,-0.3116455078125,0.152099609375,-6.7138671875,2.62451171875,0.0
37542.91094975,-1.0050048828125,-0.3116455078125,0.1585693359375,-6.7138671875,2.62451171875,0.0
37542.919866,-1.0050048828125,-0.3116455078125,0.1585693359375,-6.7138671875,2.8076171875,0.0
37542.950065041,-0.9029541015625,-0.3116455078125,0.1585693359375,-6.7138671875,2.8076171875,0.0
37542.950212166,-0.9029541015625,-0.2974853515625,0.1585693359375,-6.7138671875,2.8076171875,0.0
37542.95113175,-0.9029541015625,-0.2974853515625,0.0888671875,-6.7138671875,2.8076171875,0.0
37542.994240583,-0.9029541015625,-0.2974853515625,0.0888671875,-6.7138671875,1.52587890625,0.0
37543.009810083,-0.895263671875,-0.2974853515625,0.0888671875,-6.7138671875,1.52587890625,0.0
37543.009979208,-0.895263671875,-0.3216552734375,0.0888671875,-6.7138671875,1.52587890625,0.0
37543.01093975,-0.895263671875,-0.3216552734375,0.1134033203125,-6.7138671875,1.52587890625,0.0
37543.011098041,-0.895263671875,-0.3216552734375,0.1134033203125,-6.7138671875,5.2490234375,0.0
37543.070139666,-0.720458984375,-0.3216552734375,0.1134033203125,-6.7138671875,5.2490234375,0.0
37543.070352041,-0.720458984375,-0.25439453125,0.1134033203125,-6.7138671875,5.2490234375,0.0
37543.07083725,-0.720458984375,-0.25439453125,0.0965576171875,-6.7138671875,5.2490234375,0.0
37543.071023416,-0.720458984375,-0.25439453125,0.0965576171875,-6.7138671875,6.89697265625,0.0
37543.094015041,-0.720458984375,-0.1680908203125,0.0965576171875,-6.7138671875,6.89697265625,0.0
37543.094083166,-0.720458984375,-0.1680908203125,0.0496826171875,-6.7138671875,6.89697265625,0.0
37543.094142458,-0.720458984375,-0.1680908203125,0.0496826171875,-5.615234375,6.89697265625,0.0
37543.09964775,-0.6915283203125,-0.1680908203125,0.0496826171875,-5.615234375,6.89697265625,0.0
37543.099813041,-0.6915283203125,-0.2196044921875,0.0496826171875,-5.615234375,6.89697265625,0.0
37543.10143375,-0.6915283203125,-0.2196044921875,0.1943359375,-5.615234375,6.89697265625,0.0
37543.114919916,-0.6915283203125,-0.2196044921875,0.1943359375,-5.615234375,8.60595703125,0.0
37543.14526925,-0.66650390625,-0.2196044921875,0.1943359375,-5.615234375,8.60595703125,0.0
37543.145476625,-0.66650390625,-0.2177734375,0.1943359375,-5.615234375,8.60595703125,0.0
37543.145582041,-0.66650390625,-0.2177734375,0.159912109375,-5.615234375,8.60595703125,0.0
37543.146321708,-0.66650390625,-0.2177734375,0.159912109375,-5.615234375,3.90625,0.0
37543.160627541,-0.613525390625,-0.2177734375,0.159912109375,-5.615234375,3.90625,0.0
37543.177609666,-0.613525390625,-0.1964111328125,0.159912109375,-5.615234375,3.90625,0.0
37543.177675416,-0.613525390625,-0.1964111328125,0.10009765625,-5.615234375,3.90625,0.0
37543.177735,-0.613525390625,-0.1964111328125,0.10009765625,-5.615234375,0.67138671875,0.0
37543.295366541,-0.644775390625,-0.1964111328125,0.10009765625,-5.615234375,0.67138671875,0.0
37543.309793333,-0.644775390625,-0.29931640625,0.10009765625,-5.615234375,0.67138671875,0.0
37543.309960708,-0.644775390625,-0.29931640625,0.1214599609375,-5.615234375,0.67138671875,0.0
37543.311635,-0.644775390625,-0.29931640625,0.1214599609375,-4.69970703125,0.67138671875,0.0
37543.311717208,-0.644775390625,-0.30224609375,0.1214599609375,-4.69970703125,0.67138671875,0.0
37543.326543791,-0.644775390625,-0.30224609375,0.1214599609375,0.91552734375,0.67138671875,0.0
37543.326585291,-0.644775390625,-0.30224609375,0.1214599609375,0.91552734375,-5.126953125,0.0
37543.371483375,-0.8985595703125,-0.30224609375,0.1214599609375,0.91552734375,-5.126953125,0.0
37543.371836458,-0.8985595703125,-0.3338623046875,0.1214599609375,0.91552734375,-5.126953125,0.0
37543.372620333,-0.8985595703125,-0.3338623046875,0.12841796875,0.91552734375,-5.126953125,0.0
37543.373469791,-0.8985595703125,-0.3338623046875,0.12841796875,-1.3427734375,-5.126953125,0.0
37543.400331041,-0.8985595703125,-0.2825927734375,0.12841796875,-1.3427734375,-5.126953125,0.0
37543.400429666,-0.8985595703125,-0.2825927734375,0.1263427734375,-1.3427734375,-5.126953125,0.0
37543.414979375,-0.8985595703125,-0.2825927734375,0.1263427734375,-4.94384765625,-5.126953125,0.0
37543.415083,-0.9429931640625,-0.2825927734375,0.1263427734375,-4.94384765625,-5.126953125,0.0
37543.4447505,-0.9429931640625,-0.2413330078125,0.1263427734375,-4.94384765625,-5.126953125,0.0
37543.444791,-0.9429931640625,-0.2413330078125,0.1544189453125,-4.94384765625,-5.126953125,0.0
37543.475348916,-0.90283203125,-0.2413330078125,0.1544189453125,-4.94384765625,-5.126953125,0.0
37543.475595375,-0.90283203125,-0.2667236328125,0.1544189453125,-4.94384765625,-5.126953125,0.0
37543.476587166,-0.90283203125,-0.2667236328125,0.1544189453125,-4.94384765625,6.7138671875,0.0
37543.496127958,-1.0703125,-0.2667236328125,0.1544189453125,-4.94384765625,6.7138671875,0.0
37543.496232875,-1.0703125,-0.2283935546875,0.1544189453125,-4.94384765625,6.7138671875,0.0
37543.550669916,-1.0703125,-0.2283935546875,0.169189453125,-4.94384765625,6.7138671875,0.0
37543.57910025,-1.0062255859375,-0.2283935546875,0.169189453125,-4.94384765625,6.7138671875,0.0
37543.579186833,-1.0062255859375,-0.209716796875,0.169189453125,-4.94384765625,6.7138671875,0.0
37543.579257958,-1.0062255859375,-0.209716796875,0.218505859375,-4.94384765625,6.7138671875,0.0
37543.579327583,-1.0062255859375,-0.209716796875,0.218505859375,-4.94384765625,12.87841796875,0.0
37543.625034875,-0.963134765625,-0.209716796875,0.218505859375,-4.94384765625,12.87841796875,0.0
37543.640026208,-0.963134765625,-0.1663818359375,0.218505859375,-4.94384765625,12.87841796875,0.0
37543.640422916,-0.963134765625,-0.1663818359375,0.228271484375,-4.94384765625,12.87841796875,0.0
37543.640517041,-0.963134765625,-0.1663818359375,0.228271484375,-4.94384765625,12.5732421875,0.0
37543.661645375,-0.95751953125,-0.1663818359375,0.228271484375,-4.94384765625,12.5732421875,0.0
37543.66174925,-0.95751953125,-0.080078125,0.228271484375,-4.94384765625,12.5732421875,0.0
37543.661825,-0.95751953125,-0.080078125,0.27587890625,-4.94384765625,12.5732421875,0.0
37543.669751458,-0.95751953125,-0.080078125,0.27587890625,-4.94384765625,8.6669921875,0.0
37543.685169041,-0.9195556640625,-0.080078125,0.27587890625,-4.94384765625,8.6669921875,0.0
37543.685392375,-0.9195556640625,-0.119873046875,0.27587890625,-4.94384765625,8.6669921875,0.0
37543.685465416,-0.9195556640625,-0.119873046875,0.2545166015625,-4.94384765625,8.6669921875,0.0
37543.699657958,-0.9195556640625,-0.119873046875,0.2545166015625,-4.94384765625,3.41796875,0.0
37543.728781333,-1.02294921875,-0.119873046875,0.2545166015625,-4.94384765625,3.41796875,0.0
37543.744914666,-1.02294921875,-0.16796875,0.2545166015625,-4.94384765625,3.41796875,0.0
37543.745122291,-1.02294921875,-0.16796875,0.18994140625,-4.94384765625,3.41796875,0.0
37543.745234916,-1.02294921875,-0.16796875,0.18994140625,-4.94384765625,-2.44140625,0.0
37543.745696375,-1.048828125,-0.16796875,0.18994140625,-4.94384765625,-2.44140625,0.0
37543.76143825,-1.048828125,-0.16796875,0.18994140625,-4.638671875,-2.44140625,0.0
37543.761530041,-1.048828125,-0.16796875,0.18994140625,-4.638671875,-2.44140625,0.0
37543.7776795,-1.0430908203125,-0.16796875,0.18994140625,-4.638671875,-2.44140625,0.0
37543.777761708,-1.0430908203125,-0.114501953125,0.18994140625,-4.638671875,-2.44140625,0.0
37543.777831625,-1.0430908203125,-0.114501953125,0.178955078125,-4.638671875,-2.44140625,0.0
37543.79455825,-1.0430908203125,-0.114501953125,0.178955078125,-4.638671875,-1.64794921875,0.0
37543.804786291,-1.004638671875,-0.114501953125,0.178955078125,-4.638671875,-1.64794921875,0.0
37543.819721291,-1.004638671875,-0.033203125,0.178955078125,-4.638671875,-1.64794921875,0.0
37543.819880333,-1.004638671875,-0.033203125,0.1865234375,-4.638671875,-1.64794921875,0.0
37543.925708625,-1.004638671875,-0.033203125,0.1865234375,-4.638671875,-2.01416015625,0.0
37543.926073375,-1.0732421875,-0.033203125,0.1865234375,-4.638671875,-2.01416015625,0.0
37543.926178208,-1.0732421875,0.004150390625,0.1865234375,-4.638671875,-2.01416015625,0.0
37543.926319916,-1.0732421875,0.004150390625,0.1939697265625,-4.638671875,-2.01416015625,0.0
37543.954794625,-1.0732421875,0.004150390625,0.1939697265625,-4.638671875,-2.5634765625,0.0
37543.95498525,-1.1298828125,0.004150390625,0.1939697265625,-4.638671875,-2.5634765625,0.0
37543.962209958,-1.1298828125,0.0361328125,0.1939697265625,-4.638671875,-2.5634765625,0.0
37543.962316958,-1.1298828125,0.0361328125,0.1910400390625,-4.638671875,-2.5634765625,0.0
37543.969701333,-1.1298828125,0.0361328125,0.1910400390625,-4.638671875,2.99072265625,0.0
37544.00023025,-1.1722412109375,0.0361328125,0.1910400390625,-4.638671875,2.99072265625,0.0
37544.005373708,-1.1722412109375,0.0546875,0.1910400390625,-4.638671875,2.99072265625,0.0
37544.005511791,-1.1722412109375,0.0546875,0.233154296875,-4.638671875,2.99072265625,0.0
37544.005597041,-1.1722412109375,0.0546875,0.233154296875,-6.591796875,2.99072265625,0.0
37544.014870875,-1.2322998046875,0.0546875,0.233154296875,-6.591796875,2.99072265625,0.0
37544.015134875,-1.2322998046875,0.055908203125,0.233154296875,-6.591796875,2.99072265625,0.0
37544.029686041,-1.2322998046875,0.055908203125,0.235595703125,-6.591796875,2.99072265625,0.0
37544.029849708,-1.2322998046875,0.055908203125,0.235595703125,-6.591796875,5.37109375,0.0
37544.045287291,-1.2178955078125,0.055908203125,0.235595703125,-6.591796875,5.37109375,0.0
37544.045367083,-1.2178955078125,0.0450439453125,0.235595703125,-6.591796875,5.37109375,0.0
37544.045435416,-1.2178955078125,0.0450439453125,0.243896484375,-6.591796875,5.37109375,0.0
37544.061566708,-1.2178955078125,0.0450439453125,0.243896484375,-6.591796875,7.38525390625,0.0
37544.078228833,-1.2484130859375,0.0450439453125,0.243896484375,-6.591796875,7.38525390625,0.0
37544.09496675,-1.2484130859375,0.009765625,0.243896484375,-6.591796875,7.38525390625,0.0
37544.095058125,-1.2484130859375,0.009765625,0.2518310546875,-6.591796875,7.38525390625,0.0
37544.0951415,-1.2484130859375,0.009765625,0.2518310546875,-6.591796875,6.77490234375,0.0
37544.104996166,-1.2366943359375,0.009765625,0.2518310546875,-6.591796875,6.77490234375,0.0
37544.111649958,-1.2366943359375,0.0201416015625,0.2518310546875,-6.591796875,6.77490234375,0.0
37544.111787833,-1.2366943359375,0.0201416015625,0.2789306640625,-6.591796875,6.77490234375,0.0
37544.1197735,-1.2366943359375,0.0201416015625,0.2789306640625,-6.591796875,6.591796875,0.0
37544.149821708,-1.180419921875,0.0201416015625,0.2789306640625,-6.591796875,6.591796875,0.0
37544.154486166,-1.180419921875,0.027587890625,0.2789306640625,-6.591796875,6.591796875,0.0
37544.154579958,-1.180419921875,0.027587890625,0.2618408203125,-6.591796875,6.591796875,0.0
37544.154665208,-1.180419921875,0.027587890625,0.2618408203125,-6.591796875,5.4931640625,0.0
37544.224874958,-1.10546875,0.027587890625,0.2618408203125,-6.591796875,5.4931640625,0.0
37544.240401208,-1.10546875,0.0198974609375,0.2618408203125,-6.591796875,5.4931640625,0.0
37544.240660916,-1.10546875,0.0198974609375,0.276123046875,-6.591796875,5.4931640625,0.0
37544.241693666,-1.10546875,0.0198974609375,0.276123046875,-6.591796875,5.126953125,0.0
37544.241911333,-1.10546875,0.0281982421875,0.276123046875,-6.591796875,5.126953125,0.0
37544.26092625,-1.10546875,0.0281982421875,0.276123046875,2.74658203125,5.126953125,0.0
37544.271165875,-1.10546875,0.0281982421875,0.276123046875,2.74658203125,3.0517578125,0.0
37544.284871416,-0.9532470703125,0.0281982421875,0.276123046875,2.74658203125,3.0517578125,0.0
37544.285725083,-0.9532470703125,0.01171875,0.276123046875,2.74658203125,3.0517578125,0.0
37544.285951208,-0.9532470703125,0.01171875,0.252197265625,2.74658203125,3.0517578125,0.0
37544.299940083,-0.9532470703125,0.01171875,0.252197265625,2.74658203125,-3.7841796875,0.0
37544.31950625,-0.96533203125,0.01171875,0.252197265625,2.74658203125,-3.7841796875,0.0
37544.319709583,-0.96533203125,0.0364990234375,0.252197265625,2.74658203125,-3.7841796875,0.0
37544.319820708,-0.96533203125,0.0364990234375,0.2225341796875,2.74658203125,-3.7841796875,0.0
37544.344715291,-0.96533203125,0.0364990234375,0.2225341796875,2.74658203125,-5.31005859375,0.0
37544.404859916,-0.9794921875,0.0364990234375,0.2225341796875,2.74658203125,-5.31005859375,0.0
NEW_REP,,,,,,
37544.428811541,-0.9794921875,0.0203857421875,0.2225341796875,2.74658203125,-5.31005859375,0.0
37544.428899666,-0.9794921875,0.0203857421875,0.212890625,2.74658203125,-5.31005859375,0.0
37544.428972125,-1.000732421875,0.0203857421875,0.212890625,2.74658203125,-5.31005859375,0.0
37544.429040708,-1.000732421875,0.0203857421875,0.2269287109375,2.74658203125,-5.31005859375,0.0
37544.43463475,-1.000732421875,0.0203857421875,0.2269287109375,2.74658203125,-3.60107421875,0.0
37544.449592708,-1.1341552734375,0.0203857421875,0.2269287109375,2.74658203125,-3.60107421875,0.0
37544.464972083,-1.1341552734375,0.0250244140625,0.2269287109375,2.74658203125,-3.60107421875,0.0
37544.465177041,-1.1341552734375,0.0250244140625,0.2430419921875,2.74658203125,-3.60107421875,0.0
37544.465284666,-1.1341552734375,0.0250244140625,0.2430419921875,2.74658203125,-2.50244140625,0.0
37544.570742791,-1.1575927734375,0.0250244140625,0.2430419921875,2.74658203125,-2.50244140625,0.0
37544.571302166,-1.1575927734375,0.026611328125,0.2430419921875,2.74658203125,-2.50244140625,0.0
37544.57152075,-1.1575927734375,0.026611328125,0.263427734375,2.74658203125,-2.50244140625,0.0
37544.571670916,-1.1575927734375,0.026611328125,0.263427734375,2.74658203125,-2.5634765625,0.0
37544.588161458,-1.1575927734375,-0.054443359375,0.263427734375,2.74658203125,-2.5634765625,0.0
37544.588269708,-1.1575927734375,-0.054443359375,0.2589111328125,2.74658203125,-2.5634765625,0.0
37544.611948708,-1.1575927734375,-0.054443359375,0.2589111328125,3.72314453125,-2.5634765625,0.0
37544.614725833,-1.213623046875,-0.054443359375,0.2589111328125,3.72314453125,-2.5634765625,0.0
37544.660021333,-1.213623046875,-0.0985107421875,0.2589111328125,3.72314453125,-2.5634765625,0.0
37544.678442083,-1.213623046875,-0.0985107421875,0.22021484375,3.72314453125,-2.5634765625,0.0
37544.678520916,-1.213623046875,-0.0985107421875,0.22021484375,3.72314453125,-13.427734375,0.0
37544.6785915,-1.1551513671875,-0.0985107421875,0.22021484375,3.72314453125,-13.427734375,0.0
37544.678659541,-1.1551513671875,-0.0985107421875,0.2113037109375,3.72314453125,-13.427734375,0.0
37544.695135625,-1.1551513671875,-0.0985107421875,0.2113037109375,3.72314453125,-14.09912109375,0.0
37544.719356083,-1.1131591796875,-0.0985107421875,0.2113037109375,3.72314453125,-14.09912109375,0.0
37544.721002916,-1.1131591796875,-0.2109375,0.2113037109375,3.72314453125,-14.09912109375,0.0
37544.7211965,-1.1131591796875,-0.2109375,0.155029296875,3.72314453125,-14.09912109375,0.0
37544.727501125,-1.1131591796875,-0.2109375,0.155029296875,6.77490234375,-14.09912109375,0.0
37544.734857875,-1.0770263671875,-0.2109375,0.155029296875,6.77490234375,-14.09912109375,0.0
37544.749934458,-1.0770263671875,-0.2052001953125,0.155029296875,6.77490234375,-14.09912109375,0.0
37544.750162291,-1.0770263671875,-0.2052001953125,0.156982421875,6.77490234375,-14.09912109375,0.0
37544.750276958,-1.0770263671875,-0.2052001953125,0.156982421875,6.77490234375,-11.474609375,0.0
37544.764867708,-0.9696044921875,-0.2052001953125,0.156982421875,6.77490234375,-11.474609375,0.0
37544.7650445,-0.9696044921875,-0.22705078125,0.156982421875,6.77490234375,-11.474609375,0.0
37544.827026041,-0.9696044921875,-0.22705078125,0.2017822265625,6.77490234375,-11.474609375,0.0
37544.827458208,-0.9696044921875,-0.22705078125,0.2017822265625,6.77490234375,-9.3994140625,0.0
37544.827602583,-0.951904296875,-0.22705078125,0.2017822265625,6.77490234375,-9.3994140625,0.0
37544.827780791,-0.951904296875,-0.229736328125,0.2017822265625,6.77490234375,-9.3994140625,0.0
37544.845208,-0.951904296875,-0.229736328125,0.2017822265625,12.451171875,-9.3994140625,0.0
37544.845304041,-0.951904296875,-0.229736328125,0.2017822265625,12.451171875,-11.3525390625,0.0
37544.885027875,-0.9530029296875,-0.229736328125,0.2017822265625,12.451171875,-11.3525390625,0.0
37544.885151916,-0.9530029296875,-0.242431640625,0.2017822265625,12.451171875,-11.3525390625,0.0
37544.885670333,-0.9530029296875,-0.242431640625,0.180419921875,12.451171875,-11.3525390625,0.0
37544.885891333,-0.9530029296875,-0.242431640625,0.180419921875,12.451171875,-5.79833984375,0.0
37544.9118915,-0.9530029296875,-0.2569580078125,0.180419921875,12.451171875,-5.79833984375,0.0
37544.911972458,-0.9530029296875,-0.2569580078125,0.169189453125,12.451171875,-5.79833984375,0.0
37544.914687166,-0.9530029296875,-0.2569580078125,0.169189453125,6.16455078125,-5.79833984375,0.0
37544.944361375,-0.956787109375,-0.2569580078125,0.169189453125,6.16455078125,-5.79833984375,0.0
37544.945631083,-0.956787109375,-0.2196044921875,0.169189453125,6.16455078125,-5.79833984375,0.0
37544.945796083,-0.956787109375,-0.2196044921875,0.1610107421875,6.16455078125,-5.79833984375,0.0
37544.973756791,-0.956787109375,-0.2196044921875,0.1610107421875,6.16455078125,-3.23486328125,0.0
37544.99030675,-0.905029296875,-0.2196044921875,0.1610107421875,6.16455078125,-3.23486328125,0.0
37544.990594166,-0.905029296875,-0.21826171875,0.1610107421875,6.16455078125,-3.23486328125,0.0
37544.99070425,-0.905029296875,-0.21826171875,0.187744140625,6.16455078125,-3.23486328125,0.0
37545.011405375,-0.905029296875,-0.21826171875,0.187744140625,6.16455078125,1.28173828125,0.0
37545.066164125,-0.923583984375,-0.21826171875,0.187744140625,6.16455078125,1.28173828125,0.0
37545.06649975,-0.923583984375,-0.279052734375,0.187744140625,6.16455078125,1.28173828125,0.0
37545.0665965,-0.923583984375,-0.279052734375,0.04296875,6.16455078125,1.28173828125,0.0
37545.124077958,-0.923583984375,-0.279052734375,0.04296875,-7.38525390625,1.28173828125,0.0
37545.1554105,-0.923583984375,-0.26611328125,0.04296875,-7.38525390625,1.28173828125,0.0
37545.157274666,-0.923583984375,-0.26611328125,0.1558837890625,-7.38525390625,1.28173828125,0.0
37545.178529666,-0.923583984375,-0.26611328125,0.1558837890625,-13.85498046875,1.28173828125,0.0
37545.185184958,-0.816162109375,-0.26611328125,0.1558837890625,-13.85498046875,1.28173828125,0.0
37545.185480416,-0.816162109375,-0.26611328125,0.1041259765625,-13.85498046875,1.28173828125,0.0
37545.185637125,-0.816162109375,-0.26611328125,0.1041259765625,8.544921875,1.28173828125,0.0
37545.261267125,-0.6221923828125,-0.26611328125,0.1041259765625,8.544921875,1.28173828125,0.0
37545.2686885,-0.6221923828125,-0.059814453125,0.1041259765625,8.544921875,1.28173828125,0.0
37545.26881675,-0.6221923828125,-0.059814453125,0.19384765625,8.544921875,1.28173828125,0.0
37545.276609416,-0.7474365234375,-0.059814453125,0.19384765625,8.544921875,1.28173828125,0.0
37545.294969125,-0.7474365234375,-0.2373046875,0.19384765625,8.544921875,1.28173828125,0.0
37545.304731458,-0.7474365234375,-0.2373046875,0.1025390625,8.544921875,1.28173828125,0.0
37545.304909583,-0.7474365234375,-0.2373046875,0.1025390625,8.544921875,22.15576171875,0.0
37545.320084041,-0.82470703125,-0.2373046875,0.1025390625,8.544921875,22.15576171875,0.0
37545.320257583,-0.82470703125,-0.236083984375,0.1025390625,8.544921875,22.15576171875,0.0
37545.3357495,-0.82470703125,-0.236083984375,0.2017822265625,8.544921875,22.15576171875,0.0
37545.350188291,-0.8145751953125,-0.236083984375,0.2017822265625,8.544921875,22.15576171875,0.0
37545.350322041,-0.8145751953125,-0.2047119140625,0.2017822265625,8.544921875,22.15576171875,0.0
37545.350394125,-0.8145751953125,-0.2047119140625,0.27294921875,8.544921875,22.15576171875,0.0
37545.44125275,-0.8145751953125,-0.2047119140625,0.27294921875,8.544921875,-1.953125,0.0
37545.448043791,-0.740478515625,-0.2047119140625,0.27294921875,8.544921875,-1.953125,0.0
37545.448155375,-0.740478515625,-0.1934814453125,0.27294921875,8.544921875,-1.953125,0.0
37545.448322791,-0.740478515625,-0.1934814453125,0.252685546875,8.544921875,-1.953125,0.0
37545.468822458,-0.740478515625,-0.1934814453125,0.252685546875,8.544921875,-8.4228515625,0.0
37545.484870208,-0.7152099609375,-0.1934814453125,0.252685546875,8.544921875,-8.4228515625,0.0
37545.485037208,-0.7152099609375,-0.26025390625,0.252685546875,8.544921875,-8.4228515625,0.0
37545.501113,-0.7152099609375,-0.26025390625,0.168701171875,8.544921875,-8.4228515625,0.0
37545.501420625,-0.7152099609375,-0.26025390625,0.168701171875,8.544921875,-24.23095703125,0.0
37545.501509166,-0.759033203125,-0.26025390625,0.168701171875,8.544921875,-24.23095703125,0.0
37545.501592791,-0.759033203125,-0.2562255859375,0.168701171875,8.544921875,-24.23095703125,0.0
37545.529498083,-0.759033203125,-0.2562255859375,0.168701171875,8.544921875,-25.45166015625,0.0
37545.545041083,-0.7457275390625,-0.2562255859375,0.168701171875,8.544921875,-25.45166015625,0.0
37545.545365541,-0.7457275390625,-0.2196044921875,0.168701171875,8.544921875,-25.45166015625,0.0
37545.545524375,-0.7457275390625,-0.2196044921875,0.13818359375,8.544921875,-25.45166015625,0.0
37545.57449375,-0.7457275390625,-0.2196044921875,0.13818359375,8.544921875,-20.20263671875,0.0
37545.590426083,-0.9210205078125,-0.2196044921875,0.13818359375,8.544921875,-20.20263671875,0.0
37545.619253541,-0.9210205078125,-0.3125,0.13818359375,8.544921875,-20.20263671875,0.0
37545.62016725,-0.9210205078125,-0.3125,0.082763671875,8.544921875,-20.20263671875,0.0
37545.620480708,-0.9210205078125,-0.3125,0.082763671875,8.544921875,-8.48388671875,0.0
37545.620606958,-0.8597412109375,-0.3125,0.082763671875,8.544921875,-8.48388671875,0.0
37545.648874541,-0.8597412109375,-0.3125,0.1678466796875,8.544921875,-8.48388671875,0.0
37545.66525925,-0.8597412109375,-0.3125,0.1678466796875,3.662109375,-8.48388671875,0.0
37545.66545925,-0.8597412109375,-0.3125,0.1678466796875,3.662109375,6.591796875,0.0
37545.666585916,-0.8897705078125,-0.3125,0.1678466796875,3.662109375,6.591796875,0.0
37545.666752166,-0.8897705078125,-0.3125,0.1678466796875,13.0615234375,6.591796875,0.0
37545.740119916,-0.9410400390625,-0.3125,0.1678466796875,13.0615234375,6.591796875,0.0
37545.755156333,-0.9410400390625,-0.2630615234375,0.1678466796875,13.0615234375,6.591796875,0.0
37545.755486375,-0.9410400390625,-0.2630615234375,0.1995849609375,13.0615234375,6.591796875,0.0
37545.755649916,-0.9410400390625,-0.2630615234375,0.1995849609375,13.0615234375,13.36669921875,0.0
37545.799005083,-0.9344482421875,-0.2630615234375,0.1995849609375,13.0615234375,13.36669921875,0.0
37545.844785791,-0.9344482421875,-0.169189453125,0.1995849609375,13.0615234375,13.36669921875,0.0
37545.877785125,-0.9344482421875,-0.169189453125,0.249267578125,13.0615234375,13.36669921875,0.0
37545.877854666,-0.9344482421875,-0.169189453125,0.249267578125,-1.28173828125,13.36669921875,0.0
37545.877916666,-0.9344482421875,-0.144775390625,0.249267578125,-1.28173828125,13.36669921875,0.0
37545.878001583,-0.9344482421875,-0.144775390625,0.249267578125,2.44140625,13.36669921875,0.0
37545.87806,-0.987060546875,-0.144775390625,0.249267578125,2.44140625,13.36669921875,0.0
37545.878117708,-0.987060546875,-0.230712890625,0.249267578125,2.44140625,13.36669921875,0.0
37545.87817325,-0.987060546875,-0.230712890625,0.235107421875,2.44140625,13.36669921875,0.0
37545.894342041,-0.987060546875,-0.230712890625,0.235107421875,2.44140625,3.35693359375,0.0
37545.9045415,-1.0802001953125,-0.230712890625,0.235107421875,2.44140625,3.35693359375,0.0
37545.91999075,-1.0802001953125,-0.242919921875,0.235107421875,2.44140625,3.35693359375,0.0
37545.920205041,-1.0802001953125,-0.242919921875,0.20068359375,2.44140625,3.35693359375,0.0
37545.920312708,-1.0802001953125,-0.242919921875,0.20068359375,2.44140625,1.15966796875,0.0
37545.935059208,-0.9940185546875,-0.242919921875,0.20068359375,2.44140625,1.15966796875,0.0
37545.935254666,-0.9940185546875,-0.1920166015625,0.20068359375,2.44140625,1.15966796875,0.0
37545.935336041,-0.9940185546875,-0.1920166015625,0.1806640625,2.44140625,1.15966796875,0.0
37545.949829166,-0.9940185546875,-0.1920166015625,0.1806640625,2.44140625,1.15966796875,0.0
37545.96501875,-0.9410400390625,-0.1920166015625,0.1806640625,2.44140625,1.15966796875,0.0
37545.965197291,-0.9410400390625,-0.18798828125,0.1806640625,2.44140625,1.15966796875,0.0
37545.965294,-0.9410400390625,-0.18798828125,0.19580078125,2.44140625,1.15966796875,0.0
37545.979480708,-0.9410400390625,-0.18798828125,0.19580078125,2.44140625,-0.30517578125,0.0
37546.039878625,-1.0501708984375,-0.18798828125,0.19580078125,2.44140625,-0.30517578125,0.0
37546.040060666,-1.0501708984375,-0.1497802734375,0.19580078125,2.44140625,-0.30517578125,0.0
37546.041100041,-1.0501708984375,-0.1497802734375,0.1455078125,2.44140625,-0.30517578125,0.0
37546.061594416,-1.0501708984375,-0.1497802734375,0.1455078125,2.44140625,-3.5400390625,0.0
37546.084343708,-1.2293701171875,-0.1497802734375,0.1455078125,2.44140625,-3.5400390625,0.0
37546.100037958,-1.2293701171875,-0.1826171875,0.1455078125,2.44140625,-3.5400390625,0.0
37546.100295583,-1.2293701171875,-0.1826171875,0.2486572265625,2.44140625,-3.5400390625,0.0
37546.100423708,-1.2293701171875,-0.1826171875,0.2486572265625,14.6484375,-3.5400390625,0.0
37546.1152645,-1.2828369140625,-0.1826171875,0.2486572265625,14.6484375,-3.5400390625,0.0
37546.115556041,-1.2828369140625,-0.1868896484375,0.2486572265625,14.6484375,-3.5400390625,0.0
37546.11567075,-1.2828369140625,-0.1868896484375,0.23583984375,14.6484375,-3.5400390625,0.0
37546.144645791,-1.3001708984375,-0.1868896484375,0.23583984375,14.6484375,-3.5400390625,0.0
37546.144750708,-1.3001708984375,-0.1270751953125,0.23583984375,14.6484375,-3.5400390625,0.0
37546.145649125,-1.3001708984375,-0.1270751953125,0.2635498046875,14.6484375,-3.5400390625,0.0
37546.145729125,-1.3001708984375,-0.1270751953125,0.2635498046875,-5.92041015625,-3.5400390625,0.0
37546.1613845,-1.293212890625,-0.1270751953125,0.2635498046875,-5.92041015625,-3.5400390625,0.0
37546.161494916,-1.293212890625,-0.08984375,0.2635498046875,-5.92041015625,-3.5400390625,0.0
37546.161551375,-1.293212890625,-0.08984375,0.3355712890625,-5.92041015625,-3.5400390625,0.0
37546.178643583,-1.293212890625,-0.08984375,0.3355712890625,-5.92041015625,15.13671875,0.0
37546.205283791,-1.2303466796875,-0.08984375,0.3355712890625,-5.92041015625,15.13671875,0.0
37546.211339291,-1.2303466796875,-0.087890625,0.3355712890625,-5.92041015625,15.13671875,0.0
37546.211481541,-1.2303466796875,-0.087890625,0.3447265625,-5.92041015625,15.13671875,0.0
37546.211600708,-1.2303466796875,-0.087890625,0.3447265625,10.92529296875,15.13671875,0.0
37546.235187333,-1.185302734375,-0.087890625,0.3447265625,10.92529296875,15.13671875,0.0
37546.235370541,-1.185302734375,-0.128173828125,0.3447265625,10.92529296875,15.13671875,0.0
37546.236196166,-1.185302734375,-0.128173828125,0.30224609375,10.92529296875,15.13671875,0.0
37546.2363745,-1.185302734375,-0.128173828125,0.30224609375,20.263671875,15.13671875,0.0
37546.264835291,-1.1199951171875,-0.128173828125,0.30224609375,20.263671875,15.13671875,0.0
37546.265016416,-1.1199951171875,-0.1527099609375,0.30224609375,20.263671875,15.13671875,0.0
37546.265795666,-1.1199951171875,-0.1527099609375,0.276611328125,20.263671875,15.13671875,0.0
37546.265996,-1.1199951171875,-0.1527099609375,0.276611328125,7.01904296875,15.13671875,0.0
37546.340015333,-1.0377197265625,-0.1527099609375,0.276611328125,7.01904296875,15.13671875,0.0
37546.341172666,-1.0377197265625,-0.1201171875,0.276611328125,7.01904296875,15.13671875,0.0
37546.341491083,-1.0377197265625,-0.1201171875,0.30859375,7.01904296875,15.13671875,0.0
37546.341613166,-1.0377197265625,-0.1201171875,0.30859375,-5.92041015625,15.13671875,0.0
37546.361559375,-1.0377197265625,-0.0880126953125,0.30859375,-5.92041015625,15.13671875,0.0
37546.361645333,-1.0377197265625,-0.0880126953125,0.3292236328125,-5.92041015625,15.13671875,0.0
37546.361715625,-1.0377197265625,-0.0880126953125,0.3292236328125,-4.5166015625,15.13671875,0.0
37546.384743125,-0.9693603515625,-0.0880126953125,0.3292236328125,-4.5166015625,15.13671875,0.0
37546.384951791,-0.9693603515625,-0.0989990234375,0.3292236328125,-4.5166015625,15.13671875,0.0
37546.400226208,-0.9693603515625,-0.0989990234375,0.2841796875,-4.5166015625,15.13671875,0.0
37546.400349666,-0.9693603515625,-0.0989990234375,0.2841796875,-4.5166015625,-3.47900390625,0.0
37546.400557541,-0.9569091796875,-0.0989990234375,0.2841796875,-4.5166015625,-3.47900390625,0.0
NEW_REP,,,,,,
37546.45995325,-0.9569091796875,-0.08740234375,0.2841796875,-4.5166015625,-3.47900390625,0.0
37546.478272458,-0.9569091796875,-0.08740234375,0.2841796875,-4.5166015625,-4.2724609375,0.0
37546.478352958,-0.999267578125,-0.08740234375,0.2841796875,-4.5166015625,-4.2724609375,0.0
37546.478422708,-0.999267578125,-0.1019287109375,0.2841796875,-4.5166015625,-4.2724609375,0.0
37546.478490375,-0.999267578125,-0.1019287109375,0.2841796875,1.708984375,-4.2724609375,0.0
37546.478556791,-0.999267578125,-0.1019287109375,0.2841796875,1.708984375,-6.591796875,0.0
37546.504349791,-1.109130859375,-0.1019287109375,0.2841796875,1.708984375,-6.591796875,0.0
37546.520343375,-1.109130859375,-0.11376953125,0.2841796875,1.708984375,-6.591796875,0.0
37546.520611416,-1.109130859375,-0.11376953125,0.26513671875,1.708984375,-6.591796875,0.0
37546.520873125,-1.109130859375,-0.11376953125,0.26513671875,-1.40380859375,-6.591796875,0.0
37546.521114416,-1.149169921875,-0.11376953125,0.26513671875,-1.40380859375,-6.591796875,0.0
37546.549806458,-1.149169921875,-0.11376953125,0.26513671875,-1.3427734375,-6.591796875,0.0
37546.554073041,-1.149169921875,-0.11376953125,0.26513671875,-1.3427734375,-8.11767578125,0.0
37546.564850708,-1.1697998046875,-0.11376953125,0.26513671875,-1.3427734375,-8.11767578125,0.0
37546.656000458,-1.1697998046875,-0.14208984375,0.26513671875,-1.3427734375,-8.11767578125,0.0
37546.65638425,-1.1697998046875,-0.14208984375,0.26513671875,-1.3427734375,-8.544921875,0.0
37546.6779955,-1.2225341796875,-0.14208984375,0.26513671875,-1.3427734375,-8.544921875,0.0
37546.678081125,-1.2225341796875,-0.14892578125,0.26513671875,-1.3427734375,-8.544921875,0.0
37546.678327541,-1.2225341796875,-0.14892578125,0.26513671875,-1.3427734375,-8.11767578125,0.0
37546.700155458,-1.1502685546875,-0.14892578125,0.26513671875,-1.3427734375,-8.11767578125,0.0
37546.700259375,-1.1502685546875,-0.1776123046875,0.26513671875,-1.3427734375,-8.11767578125,0.0
37546.700800708,-1.1502685546875,-0.1776123046875,0.2633056640625,-1.3427734375,-8.11767578125,0.0
37546.7009405,-1.1502685546875,-0.1776123046875,0.2633056640625,1.89208984375,-8.11767578125,0.0
37546.715547541,-1.07421875,-0.1776123046875,0.2633056640625,1.89208984375,-8.11767578125,0.0
37546.715750583,-1.07421875,-0.2374267578125,0.2633056640625,1.89208984375,-8.11767578125,0.0
37546.715856166,-1.07421875,-0.2374267578125,0.26513671875,1.89208984375,-8.11767578125,0.0
37546.754625458,-1.07421875,-0.2374267578125,0.26513671875,1.89208984375,-0.06103515625,0.0
37546.754948083,-1.0989990234375,-0.2374267578125,0.26513671875,1.89208984375,-0.06103515625,0.0
37546.755082125,-1.0989990234375,-0.3380126953125,0.26513671875,1.89208984375,-0.06103515625,0.0
37546.755167625,-1.0989990234375,-0.3380126953125,0.24755859375,1.89208984375,-0.06103515625,0.0
37546.773594833,-1.0989990234375,-0.3380126953125,0.24755859375,1.89208984375,-2.13623046875,0.0
37546.774736083,-1.028564453125,-0.3380126953125,0.24755859375,1.89208984375,-2.13623046875,0.0
37546.774937083,-1.028564453125,-0.3299560546875,0.24755859375,1.89208984375,-2.13623046875,0.0
37546.794753541,-1.028564453125,-0.3299560546875,0.2615966796875,1.89208984375,-2.13623046875,0.0
37546.794834583,-1.028564453125,-0.3299560546875,0.2615966796875,1.89208984375,-2.3193359375,0.0
37546.804865541,-1.09130859375,-0.3299560546875,0.2615966796875,1.89208984375,-2.3193359375,0.0
37546.811435916,-1.09130859375,-0.3424072265625,0.2615966796875,1.89208984375,-2.3193359375,0.0
37546.811556916,-1.09130859375,-0.3424072265625,0.2362060546875,1.89208984375,-2.3193359375,0.0
37546.820124916,-1.09130859375,-0.3424072265625,0.2362060546875,1.89208984375,-4.45556640625,0.0
37546.895830541,-1.0517578125,-0.3424072265625,0.2362060546875,1.89208984375,-4.45556640625,0.0
37546.902119833,-1.0517578125,-0.3070068359375,0.2362060546875,1.89208984375,-4.45556640625,0.0
37546.902222416,-1.0517578125,-0.3070068359375,0.20458984375,1.89208984375,-4.45556640625,0.0
37546.902308708,-1.0517578125,-0.3070068359375,0.20458984375,12.63427734375,-4.45556640625,0.0
37546.910788166,-1.0517578125,-0.294189453125,0.20458984375,12.63427734375,-4.45556640625,0.0
37546.910999791,-1.0517578125,-0.294189453125,0.2529296875,12.63427734375,-4.45556640625,0.0
37546.928127083,-1.0517578125,-0.294189453125,0.2529296875,1.52587890625,-4.45556640625,0.0
37546.944901833,-0.8477783203125,-0.294189453125,0.2529296875,1.52587890625,-4.45556640625,0.0
37546.944981958,-0.8477783203125,-0.258544921875,0.2529296875,1.52587890625,-4.45556640625,0.0
37546.945051583,-0.8477783203125,-0.258544921875,0.1820068359375,1.52587890625,-4.45556640625,0.0
37546.985430083,-0.8477783203125,-0.258544921875,0.1820068359375,1.52587890625,-5.43212890625,0.0
37546.98562125,-0.7384033203125,-0.258544921875,0.1820068359375,1.52587890625,-5.43212890625,0.0
37547.000926125,-0.7384033203125,-0.279541015625,0.1820068359375,1.52587890625,-5.43212890625,0.0
37547.015472125,-0.7384033203125,-0.279541015625,0.341552734375,1.52587890625,-5.43212890625,0.0
37547.015651333,-0.7384033203125,-0.279541015625,0.341552734375,1.52587890625,-8.056640625,0.0
37547.044752,-0.828125,-0.279541015625,0.341552734375,1.52587890625,-8.056640625,0.0
37547.044834625,-0.828125,-0.3062744140625,0.341552734375,1.52587890625,-8.056640625,0.0
37547.044903833,-0.828125,-0.3062744140625,0.15673828125,1.52587890625,-8.056640625,0.0
37547.061504708,-0.8309326171875,-0.3062744140625,0.15673828125,1.52587890625,-8.056640625,0.0
37547.061578833,-0.8309326171875,-0.348388671875,0.15673828125,1.52587890625,-8.056640625,0.0
37547.089849041,-0.8309326171875,-0.348388671875,0.17138671875,1.52587890625,-8.056640625,0.0
37547.090056541,-0.8309326171875,-0.348388671875,0.17138671875,-2.86865234375,-8.056640625,0.0
37547.090574625,-0.836669921875,-0.348388671875,0.17138671875,-2.86865234375,-8.056640625,0.0
37547.090772166,-0.836669921875,-0.3502197265625,0.17138671875,-2.86865234375,-8.056640625,0.0
37547.135049208,-0.836669921875,-0.3502197265625,0.17138671875,-2.86865234375,-9.27734375,0.0
37547.135242833,-0.7930908203125,-0.3502197265625,0.17138671875,-2.86865234375,-9.27734375,0.0
37547.161249708,-0.7930908203125,-0.291748046875,0.17138671875,-2.86865234375,-9.27734375,0.0
37547.161384625,-0.7930908203125,-0.291748046875,0.14990234375,-2.86865234375,-9.27734375,0.0
37547.195608083,-0.8023681640625,-0.291748046875,0.14990234375,-2.86865234375,-9.27734375,0.0
37547.225249083,-0.8023681640625,-0.256591796875,0.14990234375,-2.86865234375,-9.27734375,0.0
37547.227863,-0.8023681640625,-0.256591796875,0.1781005859375,-2.86865234375,-9.27734375,0.0
37547.254043541,-0.7542724609375,-0.256591796875,0.1781005859375,-2.86865234375,-9.27734375,0.0
37547.269590791,-0.7542724609375,-0.256591796875,0.173828125,-2.86865234375,-9.27734375,0.0
37547.315028,-0.7542724609375,-0.256591796875,0.173828125,-2.86865234375,1.15966796875,0.0
37547.329654083,-0.729736328125,-0.256591796875,0.173828125,-2.86865234375,1.15966796875,0.0
37547.329753166,-0.729736328125,-0.13525390625,0.173828125,-2.86865234375,1.15966796875,0.0
37547.344178125,-0.729736328125,-0.13525390625,0.173828125,-2.86865234375,3.173828125,0.0
37547.345907541,-0.729736328125,-0.254638671875,0.173828125,-2.86865234375,3.173828125,0.0
37547.39000075,-0.729736328125,-0.254638671875,0.173828125,-29.78515625,3.173828125,0.0
37547.390149958,-0.729736328125,-0.254638671875,0.173828125,-29.78515625,4.94384765625,0.0
37547.391518166,-0.889404296875,-0.254638671875,0.173828125,-29.78515625,4.94384765625,0.0
37547.391650833,-0.889404296875,-0.1380615234375,0.173828125,-29.78515625,4.94384765625,0.0
37547.420266666,-0.889404296875,-0.1380615234375,0.173828125,-29.78515625,6.103515625,0.0
37547.434886708,-0.859375,-0.1380615234375,0.173828125,-29.78515625,6.103515625,0.0
37547.435005916,-0.859375,-0.1956787109375,0.173828125,-29.78515625,6.103515625,0.0
37547.4358515,-0.859375,-0.1956787109375,0.2047119140625,-29.78515625,6.103515625,0.0
37547.443209,-0.859375,-0.1956787109375,0.2047119140625,-29.78515625,11.16943359375,0.0
37547.465521166,-0.8194580078125,-0.1956787109375,0.2047119140625,-29.78515625,11.16943359375,0.0
37547.465658791,-0.8194580078125,-0.2486572265625,0.2047119140625,-29.78515625,11.16943359375,0.0
37547.465738791,-0.8194580078125,-0.2486572265625,0.298583984375,-29.78515625,11.16943359375,0.0
37547.4804525,-0.8194580078125,-0.2486572265625,0.298583984375,32.1044921875,11.16943359375,0.0
37547.510168208,-0.7847900390625,-0.2486572265625,0.298583984375,32.1044921875,11.16943359375,0.0
37547.510285833,-0.7847900390625,-0.2774658203125,0.298583984375,32.1044921875,11.16943359375,0.0
37547.525008583,-0.7847900390625,-0.2774658203125,0.268798828125,32.1044921875,11.16943359375,0.0
37547.543640958,-0.7847900390625,-0.3443603515625,0.268798828125,32.1044921875,11.16943359375,0.0
37547.543698541,-0.7847900390625,-0.3443603515625,0.22900390625,32.1044921875,11.16943359375,0.0
37547.543745375,-0.7847900390625,-0.3443603515625,0.22900390625,11.1083984375,11.16943359375,0.0
37547.560389791,-0.7796630859375,-0.3443603515625,0.22900390625,11.1083984375,11.16943359375,0.0
37547.560441791,-0.7796630859375,-0.3411865234375,0.22900390625,11.1083984375,11.16943359375,0.0
37547.560487416,-0.7796630859375,-0.3411865234375,0.2191162109375,11.1083984375,11.16943359375,0.0
37547.585253666,-0.712646484375,-0.3411865234375,0.2191162109375,11.1083984375,11.16943359375,0.0
37547.600230875,-0.712646484375,-0.33349609375,0.2191162109375,11.1083984375,11.16943359375,0.0
37547.6150615,-0.712646484375,-0.33349609375,0.24267578125,11.1083984375,11.16943359375,0.0
37547.644329583,-0.712646484375,-0.33349609375,0.24267578125,5.9814453125,11.16943359375,0.0
37547.646154333,-0.75927734375,-0.33349609375,0.24267578125,5.9814453125,11.16943359375,0.0
37547.646315541,-0.75927734375,-0.33349609375,0.24267578125,7.62939453125,11.16943359375,0.0
37547.646400708,-0.777099609375,-0.33349609375,0.24267578125,7.62939453125,11.16943359375,0.0
37547.674677166,-0.777099609375,-0.33349609375,0.18798828125,7.62939453125,11.16943359375,0.0
37547.674787,-0.777099609375,-0.33349609375,0.18798828125,5.67626953125,11.16943359375,0.0
37547.675588125,-0.777099609375,-0.33349609375,0.18798828125,5.67626953125,-4.2724609375,0.0
37547.71884075,-0.7357177734375,-0.33349609375,0.18798828125,5.67626953125,-4.2724609375,0.0
37547.720697,-0.7357177734375,-0.3232421875,0.18798828125,5.67626953125,-4.2724609375,0.0
37547.721161958,-0.7357177734375,-0.3232421875,0.1285400390625,5.67626953125,-4.2724609375,0.0
37547.743764458,-0.7357177734375,-0.494873046875,0.1285400390625,5.67626953125,-4.2724609375,0.0
37547.753807875,-0.7357177734375,-0.494873046875,0.0916748046875,5.67626953125,-4.2724609375,0.0
37547.760220625,-0.7357177734375,-0.494873046875,0.0916748046875,15.2587890625,-4.2724609375,0.0
37547.778122375,-0.772705078125,-0.494873046875,0.0916748046875,15.2587890625,-4.2724609375,0.0
37547.779927333,-0.772705078125,-0.1951904296875,0.0916748046875,15.2587890625,-4.2724609375,0.0
37547.780048041,-0.772705078125,-0.1951904296875,0.2205810546875,15.2587890625,-4.2724609375,0.0
37547.795046791,-0.77099609375,-0.1951904296875,0.2205810546875,15.2587890625,-4.2724609375,0.0
37547.810848291,-0.77099609375,-0.2723388671875,0.2205810546875,15.2587890625,-4.2724609375,0.0
37547.810952875,-0.77099609375,-0.2723388671875,0.1923828125,15.2587890625,-4.2724609375,0.0
37547.85384025,-0.9306640625,-0.2723388671875,0.1923828125,15.2587890625,-4.2724609375,0.0
37547.856580833,-0.9306640625,-0.2911376953125,0.1923828125,15.2587890625,-4.2724609375,0.0
37547.856731041,-0.9306640625,-0.2911376953125,0.1444091796875,15.2587890625,-4.2724609375,0.0
37547.856783041,-1.026123046875,-0.2911376953125,0.1444091796875,15.2587890625,-4.2724609375,0.0
37547.870462125,-1.026123046875,-0.2911376953125,0.1444091796875,-2.62451171875,-4.2724609375,0.0
37547.87062,-1.026123046875,-0.2911376953125,0.1444091796875,-2.62451171875,4.2724609375,0.0
37547.915397958,-0.89013671875,-0.2911376953125,0.1444091796875,-2.62451171875,4.2724609375,0.0
37547.915585666,-0.89013671875,-0.2216796875,0.1444091796875,-2.62451171875,4.2724609375,0.0
37547.915856375,-0.89013671875,-0.2216796875,0.22900390625,-2.62451171875,4.2724609375,0.0
37547.916072125,-0.89013671875,-0.2216796875,0.22900390625,-10.68115234375,4.2724609375,0.0
37547.929940458,-0.89013671875,-0.20849609375,0.22900390625,-10.68115234375,4.2724609375,0.0
37547.93009875,-0.89013671875,-0.20849609375,0.185546875,-10.68115234375,4.2724609375,0.0
37547.944921625,-0.89013671875,-0.20849609375,0.185546875,-15.380859375,4.2724609375,0.0
37547.961076041,-0.85986328125,-0.20849609375,0.185546875,-15.380859375,4.2724609375,0.0
37547.961144,-0.85986328125,-0.150634765625,0.185546875,-15.380859375,4.2724609375,0.0
37547.961276125,-0.85986328125,-0.150634765625,0.258056640625,-15.380859375,4.2724609375,0.0
37547.977502833,-0.85986328125,-0.150634765625,0.258056640625,-15.380859375,0.91552734375,0.0
37548.050189,-0.9593505859375,-0.150634765625,0.258056640625,-15.380859375,0.91552734375,0.0
37548.055827833,-0.9593505859375,-0.208251953125,0.258056640625,-15.380859375,0.91552734375,0.0
37548.055926,-0.9593505859375,-0.208251953125,0.212158203125,-15.380859375,0.91552734375,0.0
37548.056011958,-0.9593505859375,-0.208251953125,0.212158203125,1.77001953125,0.91552734375,0.0
37548.079992916,-0.9593505859375,-0.1893310546875,0.212158203125,1.77001953125,0.91552734375,0.0
37548.080196333,-0.9593505859375,-0.1893310546875,0.2186279296875,1.77001953125,0.91552734375,0.0
37548.080846041,-0.9593505859375,-0.1893310546875,0.2186279296875,-7.2021484375,0.91552734375,0.0
37548.095566,-1.0018310546875,-0.1893310546875,0.2186279296875,-7.2021484375,0.91552734375,0.0
37548.095659125,-1.0018310546875,-0.2579345703125,0.2186279296875,-7.2021484375,0.91552734375,0.0
37548.095831291,-1.0018310546875,-0.2579345703125,0.192626953125,-7.2021484375,0.91552734375,0.0
37548.1185225,-1.0018310546875,-0.2579345703125,0.192626953125,-7.2021484375,-11.23046875,0.0
37548.140036541,-0.984375,-0.2579345703125,0.192626953125,-7.2021484375,-11.23046875,0.0
37548.140220583,-0.984375,-0.2430419921875,0.192626953125,-7.2021484375,-11.23046875,0.0
37548.141440375,-0.984375,-0.2430419921875,0.2041015625,-7.2021484375,-11.23046875,0.0
37548.141703416,-0.984375,-0.2430419921875,0.2041015625,-7.8125,-11.23046875,0.0
37548.170625458,-1.1832275390625,-0.2430419921875,0.2041015625,-7.8125,-11.23046875,0.0
37548.170828166,-1.1832275390625,-0.19873046875,0.2041015625,-7.8125,-11.23046875,0.0
37548.171719708,-1.1832275390625,-0.19873046875,0.122802734375,-7.8125,-11.23046875,0.0
37548.171937958,-1.1832275390625,-0.19873046875,0.122802734375,-8.30078125,-11.23046875,0.0
37548.231422708,-1.1856689453125,-0.19873046875,0.122802734375,-8.30078125,-11.23046875,0.0
37548.231804083,-1.1856689453125,-0.1556396484375,0.122802734375,-8.30078125,-11.23046875,0.0
37548.231928125,-1.1856689453125,-0.1556396484375,0.1385498046875,-8.30078125,-11.23046875,0.0
37548.232077083,-1.1856689453125,-0.1556396484375,0.1385498046875,-15.19775390625,-11.23046875,0.0
37548.261193916,-1.1856689453125,-0.110595703125,0.1385498046875,-15.19775390625,-11.23046875,0.0
37548.290094875,-1.1856689453125,-0.110595703125,0.142333984375,-15.19775390625,-11.23046875,0.0
37548.305455625,-1.1856689453125,-0.110595703125,0.142333984375,-17.822265625,-11.23046875,0.0
37548.305534958,-1.310791015625,-0.110595703125,0.142333984375,-17.822265625,-11.23046875,0.0
37548.305692708,-1.310791015625,-0.106201171875,0.142333984375,-17.822265625,-11.23046875,0.0
37548.306253541,-1.310791015625,-0.106201171875,0.142333984375,-17.822265625,-0.1220703125,0.0
37548.336436375,-1.22412109375,-0.106201171875,0.142333984375,-17.822265625,-0.1220703125,0.0
37548.352736,-1.22412109375,-0.1324462890625,0.142333984375,-17.822265625,-0.1220703125,0.0
37548.367615916,-1.22412109375,-0.1324462890625,0.18115234375,-17.822265625,-0.1220703125,0.0
37548.367856208,-1.22412109375,-0.1324462890625,0.18115234375,0.42724609375,-0.1220703125,0.0
37548.3679275,-1.2313232421875,-0.1324462890625,0.18115234375,0.42724609375,-0.1220703125,0.0
37548.368034625,-1.2313232421875,-0.1324462890625,0.18115234375,-2.50244140625,-0.1220703125,0.0
37548.380142708,-1.2183837890625,-0.1324462890625,0.18115234375,-2.50244140625,-0.1220703125,0.0
37548.3951885,-1.2183837890625,-0.153564453125,0.18115234375,-2.50244140625,-0.1220703125,0.0
37548.395417416,-1.2183837890625,-0.153564453125,0.163818359375,-2.50244140625,-0.1220703125,0.0
37548.395512458,-1.2183837890625,-0.153564453125,0.163818359375,-2.50244140625,7.32421875,0.0
37548.440842583,-1.1622314453125,-0.153564453125,0.163818359375,-2.50244140625,7.32421875,0.0
37548.461044208,-1.1622314453125,-0.1075439453125,0.163818359375,-2.50244140625,7.32421875,0.0
37548.461114333,-1.1622314453125,-0.1075439453125,0.201904296875,-2.50244140625,7.32421875,0.0
37548.46117375,-1.1622314453125,-0.1075439453125,0.201904296875,-2.50244140625,7.568359375,0.0
37548.461230708,-1.06640625,-0.1075439453125,0.201904296875,-2.50244140625,7.568359375,0.0
37548.470314916,-1.06640625,-0.1075439453125,0.201904296875,-1.77001953125,7.568359375,0.0
37548.470470125,-1.06640625,-0.1075439453125,0.201904296875,-1.77001953125,6.89697265625,0.0
37548.500361291,-1.05419921875,-0.1075439453125,0.201904296875,-1.77001953125,6.89697265625,0.0
37548.527367958,-1.05419921875,-0.076904296875,0.201904296875,-1.77001953125,6.89697265625,0.0
37548.527445458,-1.05419921875,-0.076904296875,0.262451171875,-1.77001953125,6.89697265625,0.0
37548.527506833,-1.05419921875,-0.076904296875,0.262451171875,-5.67626953125,6.89697265625,0.0
37548.52756375,-1.031982421875,-0.076904296875,0.262451171875,-5.67626953125,6.89697265625,0.0
37548.560743125,-1.031982421875,-0.076904296875,0.262451171875,-5.4931640625,6.89697265625,0.0
37548.5609415,-1.031982421875,-0.076904296875,0.262451171875,-5.4931640625,2.197265625,0.0
37548.561010041,-1.0234375,-0.076904296875,0.262451171875,-5.4931640625,2.197265625,0.0
37548.576170916,-1.0234375,-0.076904296875,0.2276611328125,-5.4931640625,2.197265625,0.0
37548.576387083,-1.0234375,-0.076904296875,0.2276611328125,-4.150390625,2.197265625,0.0
37548.57649825,-1.0234375,-0.076904296875,0.2276611328125,-4.150390625,-0.1220703125,0.0
NEW_REP,,,,,,
37548.635336208,-1.050537109375,-0.076904296875,0.2276611328125,-4.150390625,-0.1220703125,0.0
37548.635642875,-1.050537109375,-0.080322265625,0.2276611328125,-4.150390625,-0.1220703125,0.0
37548.635741041,-1.050537109375,-0.080322265625,0.2113037109375,-4.150390625,-0.1220703125,0.0
37548.635964875,-1.050537109375,-0.080322265625,0.2113037109375,-4.39453125,-0.1220703125,0.0
37548.665213375,-1.050537109375,-0.07958984375,0.2113037109375,-4.39453125,-0.1220703125,0.0
37548.665363583,-1.050537109375,-0.07958984375,0.212158203125,-4.39453125,-0.1220703125,0.0
37548.666310083,-1.050537109375,-0.07958984375,0.212158203125,-7.32421875,-0.1220703125,0.0
37548.6664575,-1.15869140625,-0.07958984375,0.212158203125,-7.32421875,-0.1220703125,0.0
37548.679738666,-1.15869140625,-0.07958984375,0.2392578125,-7.32421875,-0.1220703125,0.0
37548.679912375,-1.15869140625,-0.07958984375,0.2392578125,-0.732421875,-0.1220703125,0.0
37548.680577208,-1.15869140625,-0.07958984375,0.2392578125,-0.732421875,-1.89208984375,0.0
37548.710926166,-1.1944580078125,-0.07958984375,0.2392578125,-0.732421875,-1.89208984375,0.0
37548.71112125,-1.1944580078125,-0.1138916015625,0.2392578125,-0.732421875,-1.89208984375,0.0
37548.711773041,-1.1944580078125,-0.1138916015625,0.24609375,-0.732421875,-1.89208984375,0.0
37548.711944416,-1.1944580078125,-0.1138916015625,0.24609375,4.94384765625,-1.89208984375,0.0
37548.728222291,-1.196533203125,-0.1138916015625,0.24609375,4.94384765625,-1.89208984375,0.0
37548.728299,-1.196533203125,-0.14453125,0.24609375,4.94384765625,-1.89208984375,0.0
37548.728366541,-1.196533203125,-0.14453125,0.2222900390625,4.94384765625,-1.89208984375,0.0
37548.745238541,-1.196533203125,-0.14453125,0.2222900390625,4.94384765625,-3.84521484375,0.0
37548.755284833,-1.168701171875,-0.14453125,0.2222900390625,4.94384765625,-3.84521484375,0.0
37548.769977,-1.168701171875,-0.146240234375,0.2222900390625,4.94384765625,-3.84521484375,0.0
37548.770173916,-1.168701171875,-0.146240234375,0.2166748046875,4.94384765625,-3.84521484375,0.0
37548.7706775,-1.168701171875,-0.146240234375,0.2166748046875,4.94384765625,-4.150390625,0.0
37548.800302458,-1.130859375,-0.146240234375,0.2166748046875,4.94384765625,-4.150390625,0.0
37548.800394625,-1.130859375,-0.180419921875,0.2166748046875,4.94384765625,-4.150390625,0.0
37548.801266291,-1.130859375,-0.180419921875,0.1962890625,4.94384765625,-4.150390625,0.0
37548.801428375,-1.130859375,-0.180419921875,0.1962890625,4.94384765625,-6.2255859375,0.0
37548.827987166,-1.13525390625,-0.180419921875,0.1962890625,4.94384765625,-6.2255859375,0.0
37548.828066541,-1.13525390625,-0.2095947265625,0.1962890625,4.94384765625,-6.2255859375,0.0
37548.828136375,-1.13525390625,-0.2095947265625,0.1873779296875,4.94384765625,-6.2255859375,0.0
37548.8464965,-1.13525390625,-0.2095947265625,0.1873779296875,4.94384765625,-7.01904296875,0.0
37548.861107208,-1.1173095703125,-0.2095947265625,0.1873779296875,4.94384765625,-7.01904296875,0.0
37548.861191708,-1.1173095703125,-0.24755859375,0.1873779296875,4.94384765625,-7.01904296875,0.0
37548.877769875,-1.1173095703125,-0.24755859375,0.186767578125,4.94384765625,-7.01904296875,0.0
37548.877861583,-1.1173095703125,-0.24755859375,0.186767578125,4.94384765625,-7.62939453125,0.0
37548.906349166,-1.075439453125,-0.24755859375,0.186767578125,4.94384765625,-7.62939453125,0.0
37548.906591541,-1.075439453125,-0.259033203125,0.186767578125,4.94384765625,-7.62939453125,0.0
37548.906727916,-1.075439453125,-0.259033203125,0.1534423828125,4.94384765625,-7.62939453125,0.0
37548.928552833,-1.075439453125,-0.259033203125,0.1534423828125,10.80322265625,-7.62939453125,0.0
37548.935037375,-1.0640869140625,-0.259033203125,0.1534423828125,10.80322265625,-7.62939453125,0.0
37548.935309458,-1.0640869140625,-0.23486328125,0.1534423828125,10.80322265625,-7.62939453125,0.0
37548.93544475,-1.0640869140625,-0.23486328125,0.1898193359375,10.80322265625,-7.62939453125,0.0
37548.965231458,-1.0406494140625,-0.23486328125,0.1898193359375,10.80322265625,-7.62939453125,0.0
37548.965557833,-1.0406494140625,-0.203857421875,0.1898193359375,10.80322265625,-7.62939453125,0.0
37548.966125291,-1.0406494140625,-0.203857421875,0.2176513671875,10.80322265625,-7.62939453125,0.0
37548.966312583,-1.0406494140625,-0.203857421875,0.2176513671875,4.0283203125,-7.62939453125,0.0
37548.9950935,-1.0245361328125,-0.203857421875,0.2176513671875,4.0283203125,-7.62939453125,0.0
37548.99528875,-1.0245361328125,-0.18505859375,0.2176513671875,4.0283203125,-7.62939453125,0.0
37548.995983333,-1.0245361328125,-0.18505859375,0.1827392578125,4.0283203125,-7.62939453125,0.0
37549.011415583,-1.0245361328125,-0.18505859375,0.1827392578125,4.0283203125,-2.25830078125,0.0
37549.040287708,-0.9739990234375,-0.18505859375,0.1827392578125,4.0283203125,-2.25830078125,0.0
37549.040491458,-0.9739990234375,-0.18896484375,0.1827392578125,4.0283203125,-2.25830078125,0.0
37549.041072541,-0.9739990234375,-0.18896484375,0.1689453125,4.0283203125,-2.25830078125,0.0
37549.041242208,-0.9739990234375,-0.18896484375,0.1689453125,18.49365234375,-2.25830078125,0.0
37549.061583458,-0.8900146484375,-0.18896484375,0.1689453125,18.49365234375,-2.25830078125,0.0
37549.06165575,-0.8900146484375,-0.174560546875,0.1689453125,18.49365234375,-2.25830078125,0.0
37549.061715291,-0.8900146484375,-0.174560546875,0.201904296875,18.49365234375,-2.25830078125,0.0
37549.085559958,-0.8900146484375,-0.174560546875,0.201904296875,18.49365234375,4.2724609375,0.0
37549.160897416,-0.8773193359375,-0.174560546875,0.201904296875,18.49365234375,4.2724609375,0.0
37549.175856125,-0.8773193359375,-0.190185546875,0.201904296875,18.49365234375,4.2724609375,0.0
37549.176181166,-0.8773193359375,-0.190185546875,0.2132568359375,18.49365234375,4.2724609375,0.0
37549.176339416,-0.8773193359375,-0.190185546875,0.2132568359375,18.49365234375,1.15966796875,0.0
37549.20552575,-0.8773193359375,-0.1630859375,0.2132568359375,18.49365234375,1.15966796875,0.0
37549.212012625,-0.8773193359375,-0.1630859375,0.2132568359375,18.12744140625,1.15966796875,0.0
37549.212301708,-0.8773193359375,-0.1630859375,0.2132568359375,18.12744140625,-1.3427734375,0.0
37549.212388375,-0.909912109375,-0.1630859375,0.2132568359375,18.12744140625,-1.3427734375,0.0
37549.220009791,-0.909912109375,-0.1630859375,0.19921875,18.12744140625,-1.3427734375,0.0
37549.22017925,-0.909912109375,-0.1630859375,0.19921875,-10.986328125,-1.3427734375,0.0
37549.220730916,-0.909912109375,-0.1630859375,0.19921875,-10.986328125,0.67138671875,0.0
37549.250087666,-0.913818359375,-0.1630859375,0.19921875,-10.986328125,0.67138671875,0.0
37549.263948416,-0.913818359375,-0.1588134765625,0.19921875,-10.986328125,0.67138671875,0.0
37549.268641125,-0.913818359375,-0.1588134765625,0.2164306640625,-10.986328125,0.67138671875,0.0
37549.268735125,-0.913818359375,-0.1588134765625,0.2164306640625,-4.2724609375,0.67138671875,0.0
37549.268820166,-0.8822021484375,-0.1588134765625,0.2164306640625,-4.2724609375,0.67138671875,0.0
37549.294779416,-0.8822021484375,-0.1588134765625,0.2164306640625,5.126953125,0.67138671875,0.0
37549.294857458,-0.8822021484375,-0.1588134765625,0.2164306640625,5.126953125,0.0,0.0
37549.311635583,-0.9622802734375,-0.1588134765625,0.2164306640625,5.126953125,0.0,0.0
37549.311711541,-0.9622802734375,-0.2183837890625,0.2164306640625,5.126953125,0.0,0.0
37549.311782208,-0.9622802734375,-0.2183837890625,0.1572265625,5.126953125,0.0,0.0
37549.311847416,-0.9622802734375,-0.2183837890625,0.1572265625,3.90625,0.0,0.0
37549.386185041,-0.9365234375,-0.2183837890625,0.1572265625,3.90625,0.0,0.0
37549.386415708,-0.9365234375,-0.197265625,0.1572265625,3.90625,0.0,0.0
37549.429826375,-0.9365234375,-0.197265625,0.0933837890625,3.90625,0.0,0.0
37549.431589125,-0.9365234375,-0.197265625,0.0933837890625,8.6669921875,0.0,0.0
37549.43175875,-0.9365234375,-0.1826171875,0.0933837890625,8.6669921875,0.0,0.0
37549.461171916,-0.9365234375,-0.1826171875,0.1539306640625,8.6669921875,0.0,0.0
37549.461368791,-0.9365234375,-0.1826171875,0.1539306640625,8.6669921875,15.7470703125,0.0
37549.505892333,-0.756103515625,-0.1826171875,0.1539306640625,8.6669921875,15.7470703125,0.0
37549.506164375,-0.756103515625,-0.103515625,0.1539306640625,8.6669921875,15.7470703125,0.0
37549.506252166,-0.756103515625,-0.103515625,0.1539306640625,8.6669921875,21.91162109375,0.0
37549.506497125,-0.72265625,-0.103515625,0.1539306640625,8.6669921875,21.91162109375,0.0
37549.550316125,-0.72265625,-0.103515625,0.2015380859375,8.6669921875,21.91162109375,0.0
37549.561430708,-0.72265625,-0.103515625,0.2015380859375,27.89306640625,21.91162109375,0.0
37549.561510166,-0.72265625,-0.103515625,0.2015380859375,27.89306640625,19.47021484375,0.0
37549.561579791,-0.7884521484375,-0.103515625,0.2015380859375,27.89306640625,19.47021484375,0.0
37549.565175541,-0.7884521484375,-0.103515625,0.2015380859375,12.63427734375,19.47021484375,0.0
37549.565344458,-0.7884521484375,-0.103515625,0.2015380859375,12.63427734375,14.2822265625,0.0
37549.61005125,-0.78759765625,-0.103515625,0.2015380859375,12.63427734375,14.2822265625,0.0
37549.610249,-0.78759765625,-0.2310791015625,0.2015380859375,12.63427734375,14.2822265625,0.0
37549.615133625,-0.78759765625,-0.2310791015625,0.233154296875,12.63427734375,14.2822265625,0.0
37549.626110625,-0.78759765625,-0.2310791015625,0.233154296875,12.63427734375,1.52587890625,0.0
37549.6706305,-0.738525390625,-0.2310791015625,0.233154296875,12.63427734375,1.52587890625,0.0
37549.670926625,-0.738525390625,-0.2821044921875,0.233154296875,12.63427734375,1.52587890625,0.0
37549.672178375,-0.738525390625,-0.2821044921875,0.2601318359375,12.63427734375,1.52587890625,0.0
37549.67244175,-0.738525390625,-0.2821044921875,0.2601318359375,12.63427734375,-9.58251953125,0.0
