Timestamp,Accel_X,Accel_Y,Accel_Z,Gyro_X,Gyro_Y,Gyro_Z
37470.198845291,-0.25927734375,0.0,0.0,0.0,0.0,0.0
37470.212862958,-0.2584228515625,0.0,0.0,0.0,0.0,0.0
37470.243392291,-0.2547607421875,0.0,0.0,0.0,0.0,0.0
37470.243633333,-0.2547607421875,0.2823486328125,0.0,0.0,0.0,0.0
37470.273325458,-0.2576904296875,0.2823486328125,0.0,0.0,0.0,0.0
37470.273526208,-0.2576904296875,0.271728515625,0.0,0.0,0.0,0.0
37470.292393875,-0.254638671875,0.271728515625,0.0,0.0,0.0,0.0
37470.292471666,-0.254638671875,0.266845703125,0.0,0.0,0.0,0.0
37470.317372541,-0.2620849609375,0.266845703125,0.0,0.0,0.0,0.0
37470.31747275,-0.2620849609375,0.2625732421875,0.0,0.0,0.0,0.0
37470.318786541,-0.2620849609375,0.2625732421875,0.8990478515625,0.0,0.0,0.0
37470.34768025,-0.258056640625,0.2625732421875,0.8990478515625,0.0,0.0,0.0
37470.348405625,-0.258056640625,0.2623291015625,0.8990478515625,0.0,0.0,0.0
37470.362978875,-0.247802734375,0.2623291015625,0.8990478515625,0.0,0.0,0.0
37470.378116666,-0.247802734375,0.27783203125,0.8990478515625,0.0,0.0,0.0
37470.3783225,-0.247802734375,0.27783203125,0.8955078125,0.0,0.0,0.0
37470.393747125,-0.2418212890625,0.27783203125,0.8955078125,0.0,0.0,0.0
37470.395796708,-0.2418212890625,0.27099609375,0.8955078125,0.0,0.0,0.0
37470.42279775,-0.24267578125,0.27099609375,0.8955078125,0.0,0.0,0.0
37470.423043625,-0.24267578125,0.2572021484375,0.8955078125,0.0,0.0,0.0
37470.42362275,-0.24267578125,0.2572021484375,0.9002685546875,0.0,0.0,0.0
37470.442468708,-0.24267578125,0.2572021484375,0.9002685546875,5.55419921875,0.0,0.0
37470.442563166,-0.24267578125,0.2572021484375,0.9002685546875,5.55419921875,0.0,-0.42724609375
37470.467901291,-0.27099609375,0.2572021484375,0.9002685546875,5.55419921875,0.0,-0.42724609375
37470.468112416,-0.27099609375,0.2869873046875,0.9002685546875,5.55419921875,0.0,-0.42724609375
37470.468909,-0.27099609375,0.2869873046875,0.9512939453125,5.55419921875,0.0,-0.42724609375
37470.46910925,-0.27099609375,0.2869873046875,0.9512939453125,9.1552734375,0.0,-0.42724609375
37470.483015083,-0.2802734375,0.2869873046875,0.9512939453125,9.1552734375,0.0,-0.42724609375
37470.483229583,-0.2802734375,0.258056640625,0.9512939453125,9.1552734375,0.0,-0.42724609375
37470.484276583,-0.2802734375,0.258056640625,0.9107666015625,9.1552734375,0.0,-0.42724609375
37470.498985166,-0.2802734375,0.258056640625,0.9107666015625,9.1552734375,-2.25830078125,-0.42724609375
37470.499165291,-0.2802734375,0.258056640625,0.9107666015625,9.1552734375,-2.25830078125,1.0986328125
37470.513278333,-0.258056640625,0.258056640625,0.9107666015625,9.1552734375,-2.25830078125,1.0986328125
37470.513495458,-0.258056640625,0.235595703125,0.9107666015625,9.1552734375,-2.25830078125,1.0986328125
37470.513905666,-0.258056640625,0.235595703125,0.893310546875,9.1552734375,-2.25830078125,1.0986328125
37470.529079916,-0.258056640625,0.235595703125,0.893310546875,9.1552734375,-1.5869140625,1.0986328125
37470.5427365,-0.258056640625,0.235595703125,0.893310546875,9.1552734375,-1.5869140625,1.15966796875
37470.542949208,-0.24560546875,0.235595703125,0.893310546875,9.1552734375,-1.5869140625,1.15966796875
37470.543781083,-0.24560546875,0.2486572265625,0.893310546875,9.1552734375,-1.5869140625,1.15966796875
37470.543946541,-0.24560546875,0.2486572265625,0.894287109375,9.1552734375,-1.5869140625,1.15966796875
37470.559033541,-0.24560546875,0.2486572265625,0.894287109375,9.1552734375,-1.3427734375,1.15966796875
37470.559128375,-0.24560546875,0.2486572265625,0.894287109375,9.1552734375,-1.3427734375,0.9765625
37470.587979208,-0.2435302734375,0.2486572265625,0.894287109375,9.1552734375,-1.3427734375,0.9765625
37470.588182208,-0.2435302734375,0.25439453125,0.894287109375,9.1552734375,-1.3427734375,0.9765625
37470.588444166,-0.2435302734375,0.25439453125,0.9151611328125,9.1552734375,-1.3427734375,0.9765625
37470.588647291,-0.2435302734375,0.25439453125,0.9151611328125,7.14111328125,-1.3427734375,0.9765625
37470.617219333,-0.2401123046875,0.25439453125,0.9151611328125,7.14111328125,-1.3427734375,0.9765625
37470.620701333,-0.2401123046875,0.2254638671875,0.9151611328125,7.14111328125,-1.3427734375,0.9765625
37470.621014458,-0.2401123046875,0.2254638671875,0.8853759765625,7.14111328125,-1.3427734375,0.9765625
37470.621111541,-0.2401123046875,0.2254638671875,0.8853759765625,5.06591796875,-1.3427734375,0.9765625
37470.633742041,-0.2388916015625,0.2254638671875,0.8853759765625,5.06591796875,-1.3427734375,0.9765625
37470.63407225,-0.2388916015625,0.2276611328125,0.8853759765625,5.06591796875,-1.3427734375,0.9765625
37470.634210208,-0.2388916015625,0.2276611328125,0.889404296875,5.06591796875,-1.3427734375,0.9765625
37470.648145875,-0.2388916015625,0.2276611328125,0.889404296875,5.06591796875,-0.91552734375,0.9765625
37470.648367458,-0.2388916015625,0.2276611328125,0.889404296875,5.06591796875,-0.91552734375,1.40380859375
37470.680038833,-0.2462158203125,0.2276611328125,0.889404296875,5.06591796875,-0.91552734375,1.40380859375
37470.6805085,-0.2462158203125,0.24658203125,0.889404296875,5.06591796875,-0.91552734375,1.40380859375
37470.680684916,-0.2462158203125,0.24658203125,0.92578125,5.06591796875,-0.91552734375,1.40380859375
37470.680947583,-0.2462158203125,0.24658203125,0.92578125,5.4931640625,-0.91552734375,1.40380859375
37470.692680791,-0.252197265625,0.24658203125,0.92578125,5.4931640625,-0.91552734375,1.40380859375
37470.694095291,-0.252197265625,0.2366943359375,0.92578125,5.4931640625,-0.91552734375,1.40380859375
37470.694342708,-0.252197265625,0.2366943359375,0.9259033203125,5.4931640625,-0.91552734375,1.40380859375
37470.70812425,-0.252197265625,0.2366943359375,0.9259033203125,5.4931640625,-0.732421875,1.40380859375
37470.708347083,-0.252197265625,0.2366943359375,0.9259033203125,5.4931640625,-0.732421875,1.953125
37470.724442916,-0.2630615234375,0.2366943359375,0.9259033203125,5.4931640625,-0.732421875,1.953125
37470.724745583,-0.2630615234375,0.2269287109375,0.9259033203125,5.4931640625,-0.732421875,1.953125
37470.724903291,-0.2630615234375,0.2269287109375,0.9019775390625,5.4931640625,-0.732421875,1.953125
37470.738421541,-0.2630615234375,0.2269287109375,0.9019775390625,5.4931640625,-0.67138671875,1.953125
37470.738660541,-0.2630615234375,0.2269287109375,0.9019775390625,5.4931640625,-0.67138671875,1.953125
37470.752743416,-0.25830078125,0.2269287109375,0.9019775390625,5.4931640625,-0.67138671875,1.953125
37470.752967541,-0.25830078125,0.2398681640625,0.9019775390625,5.4931640625,-0.67138671875,1.953125
37470.754357333,-0.25830078125,0.2398681640625,0.907470703125,5.4931640625,-0.67138671875,1.953125
37470.775471833,-0.25830078125,0.2398681640625,0.907470703125,5.4931640625,-0.67138671875,1.953125
37470.775552375,-0.25830078125,0.2398681640625,0.907470703125,5.4931640625,-0.67138671875,2.3193359375
37470.782677541,-0.2469482421875,0.2398681640625,0.907470703125,5.4931640625,-0.67138671875,2.3193359375
37470.782870791,-0.2469482421875,0.23828125,0.907470703125,5.4931640625,-0.67138671875,2.3193359375
37470.78406975,-0.2469482421875,0.23828125,0.91064453125,5.4931640625,-0.67138671875,2.3193359375
37470.812643958,-0.2469482421875,0.23828125,0.91064453125,5.4931640625,-0.6103515625,2.3193359375
37470.812837,-0.2469482421875,0.23828125,0.91064453125,5.4931640625,-0.6103515625,2.50244140625
37470.8168445,-0.25,0.23828125,0.91064453125,5.4931640625,-0.6103515625,2.50244140625
37470.827432791,-0.25,0.23828125,0.9002685546875,5.4931640625,-0.6103515625,2.50244140625
37470.842016375,-0.25,0.23828125,0.9002685546875,1.89208984375,-0.6103515625,2.50244140625
37470.84209925,-0.25,0.23828125,0.9002685546875,1.89208984375,-0.67138671875,2.50244140625
37470.842397958,-0.25146484375,0.23828125,0.9002685546875,1.89208984375,-0.67138671875,2.50244140625
37470.84253075,-0.25146484375,0.2381591796875,0.9002685546875,1.89208984375,-0.67138671875,2.50244140625
37470.843290125,-0.25146484375,0.2381591796875,0.90673828125,1.89208984375,-0.67138671875,2.50244140625
37470.858942041,-0.25146484375,0.2381591796875,0.90673828125,1.89208984375,-0.54931640625,2.50244140625
37470.859024833,-0.25146484375,0.2381591796875,0.90673828125,1.89208984375,-0.54931640625,2.0751953125
37470.875030875,-0.253662109375,0.2381591796875,0.90673828125,1.89208984375,-0.54931640625,2.0751953125
37470.875096416,-0.253662109375,0.2379150390625,0.90673828125,1.89208984375,-0.54931640625,2.0751953125
37470.87515675,-0.253662109375,0.2379150390625,0.9169921875,1.89208984375,-0.54931640625,2.0751953125
37470.891589625,-0.253662109375,0.2379150390625,0.9169921875,1.89208984375,-0.732421875,2.0751953125
37470.891656208,-0.253662109375,0.2379150390625,0.9169921875,1.89208984375,-0.732421875,2.44140625
37470.9025295,-0.2603759765625,0.2379150390625,0.9169921875,1.89208984375,-0.732421875,2.44140625
37470.908260833,-0.2603759765625,0.238525390625,0.9169921875,1.89208984375,-0.732421875,2.44140625
37470.908329,-0.2603759765625,0.238525390625,0.919921875,1.89208984375,-0.732421875,2.44140625
37470.918237791,-0.2603759765625,0.238525390625,0.919921875,1.89208984375,-0.91552734375,2.44140625
37470.918400208,-0.2603759765625,0.238525390625,0.919921875,1.89208984375,-0.91552734375,2.685546875
37470.9384835,-0.26171875,0.238525390625,0.919921875,1.89208984375,-0.91552734375,2.685546875
37470.938716583,-0.26171875,0.2349853515625,0.919921875,1.89208984375,-0.91552734375,2.685546875
37470.938793458,-0.26171875,0.2349853515625,0.905517578125,1.89208984375,-0.91552734375,2.685546875
37470.959009458,-0.26171875,0.2349853515625,0.905517578125,1.89208984375,-0.67138671875,2.685546875
37470.959055958,-0.26171875,0.2349853515625,0.905517578125,1.89208984375,-0.67138671875,2.9296875
37470.962893666,-0.2506103515625,0.2349853515625,0.905517578125,1.89208984375,-0.67138671875,2.9296875
37470.963016208,-0.2506103515625,0.23876953125,0.905517578125,1.89208984375,-0.67138671875,2.9296875
37470.963794916,-0.2506103515625,0.23876953125,0.9052734375,1.89208984375,-0.67138671875,2.9296875
37470.978624083,-0.2506103515625,0.23876953125,0.9052734375,1.89208984375,-0.30517578125,2.9296875
37470.978764916,-0.2506103515625,0.23876953125,0.9052734375,1.89208984375,-0.30517578125,3.11279296875
37470.992492458,-0.255859375,0.23876953125,0.9052734375,1.89208984375,-0.30517578125,3.11279296875
37470.992577041,-0.255859375,0.244873046875,0.9052734375,1.89208984375,-0.30517578125,3.11279296875
37470.993636875,-0.255859375,0.244873046875,0.92236328125,1.89208984375,-0.30517578125,3.11279296875
37471.008553166,-0.255859375,0.244873046875,0.92236328125,1.89208984375,-0.18310546875,3.11279296875
37471.008618791,-0.255859375,0.244873046875,0.92236328125,1.89208984375,-0.18310546875,3.173828125
37471.024980333,-0.263916015625,0.244873046875,0.92236328125,1.89208984375,-0.18310546875,3.173828125
37471.025067958,-0.263916015625,0.2342529296875,0.92236328125,1.89208984375,-0.18310546875,3.173828125
37471.025139833,-0.263916015625,0.2342529296875,0.910888671875,1.89208984375,-0.18310546875,3.173828125
37471.041519041,-0.263916015625,0.2342529296875,0.910888671875,1.89208984375,-0.67138671875,3.173828125
37471.041596583,-0.263916015625,0.2342529296875,0.910888671875,1.89208984375,-0.67138671875,3.47900390625
37471.058007208,-0.2684326171875,0.2342529296875,0.910888671875,1.89208984375,-0.67138671875,3.47900390625
37471.05807025,-0.2684326171875,0.242919921875,0.910888671875,1.89208984375,-0.67138671875,3.47900390625
37471.058130208,-0.2684326171875,0.242919921875,0.9144287109375,1.89208984375,-0.67138671875,3.47900390625
37471.067994,-0.2684326171875,0.242919921875,0.9144287109375,1.89208984375,-0.54931640625,3.47900390625
37471.068184375,-0.2684326171875,0.242919921875,0.9144287109375,1.89208984375,-0.54931640625,3.23486328125
37471.082680083,-0.242919921875,0.242919921875,0.9144287109375,1.89208984375,-0.54931640625,3.23486328125
37471.082826583,-0.242919921875,0.2305908203125,0.9144287109375,1.89208984375,-0.54931640625,3.23486328125
37471.083798958,-0.242919921875,0.2305908203125,0.8804931640625,1.89208984375,-0.54931640625,3.23486328125
37471.098389958,-0.242919921875,0.2305908203125,0.8804931640625,1.89208984375,-0.244140625,3.23486328125
37471.098533916,-0.242919921875,0.2305908203125,0.8804931640625,1.89208984375,-0.244140625,3.35693359375
37471.114410041,-0.2318115234375,0.2305908203125,0.8804931640625,1.89208984375,-0.244140625,3.35693359375
37471.114587708,-0.2318115234375,0.244384765625,0.8804931640625,1.89208984375,-0.244140625,3.35693359375
37471.114682375,-0.2318115234375,0.244384765625,0.8798828125,1.89208984375,-0.244140625,3.35693359375
37471.128731458,-0.2318115234375,0.244384765625,0.8798828125,1.89208984375,0.48828125,3.35693359375
37471.128883333,-0.2318115234375,0.244384765625,0.8798828125,1.89208984375,0.48828125,3.47900390625
37471.145394166,-0.1968994140625,0.244384765625,0.8798828125,1.89208984375,0.48828125,3.47900390625
37471.14558,-0.1968994140625,0.24560546875,0.8798828125,1.89208984375,0.48828125,3.47900390625
37471.145658458,-0.1968994140625,0.24560546875,0.9361572265625,1.89208984375,0.48828125,3.47900390625
37471.15838225,-0.1968994140625,0.24560546875,0.9361572265625,1.89208984375,-0.30517578125,3.47900390625
37471.160946125,-0.1968994140625,0.24560546875,0.9361572265625,1.89208984375,-0.30517578125,2.685546875
37471.174492833,-0.2916259765625,0.24560546875,0.9361572265625,1.89208984375,-0.30517578125,2.685546875
37471.174558,-0.2916259765625,0.2701416015625,0.9361572265625,1.89208984375,-0.30517578125,2.685546875
37471.174632333,-0.2916259765625,0.2701416015625,0.92236328125,1.89208984375,-0.30517578125,2.685546875
37471.191336791,-0.2916259765625,0.2701416015625,0.92236328125,1.89208984375,-0.8544921875,2.685546875
37471.191417125,-0.2916259765625,0.2701416015625,0.92236328125,1.89208984375,-0.8544921875,1.52587890625
37471.207933041,-0.3006591796875,0.2701416015625,0.92236328125,1.89208984375,-0.8544921875,1.52587890625
37471.207999958,-0.3006591796875,0.229248046875,0.92236328125,1.89208984375,-0.8544921875,1.52587890625
37471.208059333,-0.3006591796875,0.229248046875,0.8974609375,1.89208984375,-0.8544921875,1.52587890625
37471.22482675,-0.3006591796875,0.229248046875,0.8974609375,1.89208984375,-0.244140625,1.52587890625
37471.224893625,-0.3006591796875,0.229248046875,0.8974609375,1.89208984375,-0.244140625,3.173828125
37471.23356325,-0.2711181640625,0.229248046875,0.8974609375,1.89208984375,-0.244140625,3.173828125
37471.233755,-0.2711181640625,0.2816162109375,0.8974609375,1.89208984375,-0.244140625,3.173828125
37471.233837375,-0.2711181640625,0.2816162109375,0.9420166015625,1.89208984375,-0.244140625,3.173828125
37471.24790725,-0.2711181640625,0.2816162109375,0.9420166015625,1.89208984375,0.732421875,3.173828125
37471.248049291,-0.2711181640625,0.2816162109375,0.9420166015625,1.89208984375,0.732421875,3.41796875
37471.26492575,-0.2733154296875,0.2816162109375,0.9420166015625,1.89208984375,0.732421875,3.41796875
37471.265043666,-0.2733154296875,0.24609375,0.9420166015625,1.89208984375,0.732421875,3.41796875
37471.266598,-0.2733154296875,0.24609375,0.9287109375,1.89208984375,0.732421875,3.41796875
37471.277740958,-0.2733154296875,0.24609375,0.9287109375,1.89208984375,-0.732421875,3.41796875
37471.277868208,-0.2733154296875,0.24609375,0.9287109375,1.89208984375,-0.732421875,3.0517578125
37471.292508708,-0.2537841796875,0.24609375,0.9287109375,1.89208984375,-0.732421875,3.0517578125
37471.292633583,-0.2537841796875,0.2503662109375,0.9287109375,1.89208984375,-0.732421875,3.0517578125
37471.308327541,-0.2537841796875,0.2503662109375,0.89794921875,1.89208984375,-0.732421875,3.0517578125
37471.308521791,-0.2537841796875,0.2503662109375,0.89794921875,1.89208984375,-0.79345703125,3.0517578125
37471.308601958,-0.2537841796875,0.2503662109375,0.89794921875,1.89208984375,-0.79345703125,2.8076171875
37471.324723958,-0.241943359375,0.2503662109375,0.89794921875,1.89208984375,-0.79345703125,2.8076171875
37471.324795708,-0.241943359375,0.2486572265625,0.89794921875,1.89208984375,-0.79345703125,2.8076171875
37471.324857166,-0.241943359375,0.2486572265625,0.8885498046875,1.89208984375,-0.79345703125,2.8076171875
37471.341336625,-0.241943359375,0.2486572265625,0.8885498046875,1.89208984375,-0.8544921875,2.8076171875
37471.341507791,-0.241943359375,0.2486572265625,0.8885498046875,1.89208984375,-0.8544921875,2.3193359375
37471.358021583,-0.2490234375,0.2486572265625,0.8885498046875,1.89208984375,-0.8544921875,2.3193359375
37471.358085,-0.2490234375,0.250732421875,0.8885498046875,1.89208984375,-0.8544921875,2.3193359375
37471.358144166,-0.2490234375,0.250732421875,0.910888671875,1.89208984375,-0.8544921875,2.3193359375
37471.382853625,-0.2490234375,0.250732421875,0.910888671875,1.89208984375,-0.3662109375,2.3193359375
37471.382996333,-0.2490234375,0.250732421875,0.910888671875,1.89208984375,-0.3662109375,2.50244140625
37471.384063125,-0.2628173828125,0.250732421875,0.910888671875,1.89208984375,-0.3662109375,2.50244140625
37471.384226625,-0.2628173828125,0.1859130859375,0.910888671875,1.89208984375,-0.3662109375,2.50244140625
37471.397985333,-0.2628173828125,0.1859130859375,0.910888671875,1.89208984375,1.5869140625,2.50244140625
37471.398129166,-0.2628173828125,0.1859130859375,0.910888671875,1.89208984375,1.5869140625,4.08935546875
37471.427888375,-0.24951171875,0.1859130859375,0.910888671875,1.89208984375,1.5869140625,4.08935546875
37471.428068833,-0.24951171875,0.043212890625,0.910888671875,1.89208984375,1.5869140625,4.08935546875
37471.429145083,-0.24951171875,0.043212890625,1.0574951171875,1.89208984375,1.5869140625,4.08935546875
37471.441592541,-0.24951171875,0.043212890625,1.0574951171875,-14.09912109375,1.5869140625,4.08935546875
37471.458454583,-0.221435546875,0.043212890625,1.0574951171875,-14.09912109375,1.5869140625,4.08935546875
37471.45852075,-0.221435546875,0.1307373046875,1.0574951171875,-14.09912109375,1.5869140625,4.08935546875
37471.458734375,-0.221435546875,0.1307373046875,1.1580810546875,-14.09912109375,1.5869140625,4.08935546875
37471.458883291,-0.221435546875,0.1307373046875,1.1580810546875,-44.677734375,1.5869140625,4.08935546875
37471.474677291,-0.0823974609375,0.1307373046875,1.1580810546875,-44.677734375,1.5869140625,4.08935546875
37471.474743541,-0.0823974609375,0.314697265625,1.1580810546875,-44.677734375,1.5869140625,4.08935546875
37471.47480375,-0.0823974609375,0.314697265625,1.2353515625,-44.677734375,1.5869140625,4.08935546875
37471.491264791,-0.0823974609375,0.314697265625,1.2353515625,-44.677734375,4.39453125,4.08935546875
37471.491328625,-0.0823974609375,0.314697265625,1.2353515625,-44.677734375,4.39453125,16.05224609375
37471.518330333,-0.0731201171875,0.314697265625,1.2353515625,-44.677734375,4.39453125,16.05224609375
37471.524626916,-0.0731201171875,0.83203125,1.2353515625,-44.677734375,4.39453125,16.05224609375
37471.524727916,-0.0731201171875,0.83203125,1.6654052734375,-44.677734375,4.39453125,16.05224609375
37471.5247895,-0.0731201171875,0.83203125,1.6654052734375,-25.08544921875,4.39453125,16.05224609375
37471.547911583,-0.2486572265625,0.83203125,1.6654052734375,-25.08544921875,4.39453125,16.05224609375
37471.548050875,-0.2486572265625,0.4635009765625,1.6654052734375,-25.08544921875,4.39453125,16.05224609375
37471.548767458,-0.2486572265625,0.4635009765625,1.5594482421875,-25.08544921875,4.39453125,16.05224609375
37471.550878958,-0.2486572265625,0.4635009765625,1.5594482421875,58.2275390625,4.39453125,16.05224609375
37471.562547916,-0.3914794921875,0.4635009765625,1.5594482421875,58.2275390625,4.39453125,16.05224609375
37471.5626825,-0.3914794921875,0.25146484375,1.5594482421875,58.2275390625,4.39453125,16.05224609375
37471.563792041,-0.3914794921875,0.25146484375,1.4190673828125,58.2275390625,4.39453125,16.05224609375
37471.578210625,-0.3914794921875,0.25146484375,1.4190673828125,58.2275390625,-101.806640625,16.05224609375
37471.578341083,-0.3914794921875,0.25146484375,1.4190673828125,58.2275390625,-101.806640625,37.9638671875
37471.606701625,-0.356689453125,0.25146484375,1.4190673828125,58.2275390625,-101.806640625,37.9638671875
37471.608410166,-0.356689453125,0.345458984375,1.4190673828125,58.2275390625,-101.806640625,37.9638671875
37471.608544333,-0.356689453125,0.345458984375,1.2235107421875,58.2275390625,-101.806640625,37.9638671875
37471.609367083,-0.356689453125,0.345458984375,1.2235107421875,29.72412109375,-101.806640625,37.9638671875
37471.624883958,-0.36572265625,0.345458984375,1.2235107421875,29.72412109375,-101.806640625,37.9638671875
37471.641781666,-0.36572265625,0.341552734375,1.2235107421875,29.72412109375,-101.806640625,37.9638671875
37471.641848125,-0.36572265625,0.341552734375,1.0361328125,29.72412109375,-101.806640625,37.9638671875
37471.6419105,-0.36572265625,0.341552734375,1.0361328125,29.72412109375,-129.94384765625,37.9638671875
37471.641971083,-0.36572265625,0.341552734375,1.0361328125,29.72412109375,-129.94384765625,54.8095703125
37471.657968916,-0.4056396484375,0.341552734375,1.0361328125,29.72412109375,-129.94384765625,54.8095703125
37471.658086583,-0.4056396484375,0.2630615234375,1.0361328125,29.72412109375,-129.94384765625,54.8095703125
37471.65814975,-0.4056396484375,0.2630615234375,0.92138671875,29.72412109375,-129.94384765625,54.8095703125
37471.674788916,-0.4056396484375,0.2630615234375,0.92138671875,29.72412109375,-131.103515625,54.8095703125
37471.674860416,-0.4056396484375,0.2630615234375,0.92138671875,29.72412109375,-131.103515625,58.16650390625
37471.684188583,-0.4637451171875,0.2630615234375,0.92138671875,29.72412109375,-131.103515625,58.16650390625
37471.684358541,-0.4637451171875,0.2259521484375,0.92138671875,29.72412109375,-131.103515625,58.16650390625
37471.684453375,-0.4637451171875,0.2259521484375,0.7623291015625,29.72412109375,-131.103515625,58.16650390625
37471.698799083,-0.4637451171875,0.2259521484375,0.7623291015625,29.72412109375,-124.81689453125,58.16650390625
37471.698954916,-0.4637451171875,0.2259521484375,0.7623291015625,29.72412109375,-124.81689453125,58.837890625
37471.727968041,-0.4832763671875,0.2259521484375,0.7623291015625,29.72412109375,-124.81689453125,58.837890625
37471.728127791,-0.4832763671875,0.2540283203125,0.7623291015625,29.72412109375,-124.81689453125,58.837890625
37471.728742583,-0.4832763671875,0.2540283203125,0.6575927734375,29.72412109375,-124.81689453125,58.837890625
37471.728896958,-0.4832763671875,0.2540283203125,0.6575927734375,29.72412109375,-116.8212890625,58.837890625
37471.742926125,-0.5238037109375,0.2540283203125,0.6575927734375,29.72412109375,-116.8212890625,58.837890625
37471.743080375,-0.5238037109375,0.1910400390625,0.6575927734375,29.72412109375,-116.8212890625,58.837890625
37471.743134333,-0.5238037109375,0.1910400390625,0.5821533203125,29.72412109375,-116.8212890625,58.837890625
37471.758935541,-0.5238037109375,0.1910400390625,0.5821533203125,29.72412109375,-106.14013671875,58.837890625
37471.759044958,-0.5238037109375,0.1910400390625,0.5821533203125,29.72412109375,-106.14013671875,51.20849609375
37471.774353125,-0.554931640625,0.1910400390625,0.5821533203125,29.72412109375,-106.14013671875,51.20849609375
37471.774411208,-0.554931640625,0.1568603515625,0.5821533203125,29.72412109375,-106.14013671875,51.20849609375
37471.775981125,-0.554931640625,0.1568603515625,0.5018310546875,29.72412109375,-106.14013671875,51.20849609375
37471.79120525,-0.554931640625,0.1568603515625,0.5018310546875,29.72412109375,-94.23828125,51.20849609375
37471.791264875,-0.554931640625,0.1568603515625,0.5018310546875,29.72412109375,-94.23828125,44.921875
37471.807912958,-0.58349609375,0.1568603515625,0.5018310546875,29.72412109375,-94.23828125,44.921875
37471.80796875,-0.58349609375,0.128173828125,0.5018310546875,29.72412109375,-94.23828125,44.921875
37471.808021083,-0.58349609375,0.128173828125,0.4708251953125,29.72412109375,-94.23828125,44.921875
37471.817907666,-0.58349609375,0.128173828125,0.4708251953125,29.72412109375,-86.85302734375,44.921875
37471.834889125,-0.58349609375,0.128173828125,0.4708251953125,29.72412109375,-86.85302734375,39.24560546875
37471.86270375,-0.6153564453125,0.128173828125,0.4708251953125,29.72412109375,-86.85302734375,39.24560546875
37471.8655405,-0.6153564453125,0.0164794921875,0.4708251953125,29.72412109375,-86.85302734375,39.24560546875
37471.865747833,-0.6153564453125,0.0164794921875,0.4078369140625,29.72412109375,-86.85302734375,39.24560546875
37471.893147833,-0.6153564453125,0.0164794921875,0.4078369140625,29.72412109375,-78.4912109375,39.24560546875
37471.893351666,-0.6153564453125,0.0164794921875,0.4078369140625,29.72412109375,-78.4912109375,33.5693359375
37471.893459791,-0.69140625,0.0164794921875,0.4078369140625,29.72412109375,-78.4912109375,33.5693359375
37471.893986208,-0.69140625,-0.0179443359375,0.4078369140625,29.72412109375,-78.4912109375,33.5693359375
37471.908646958,-0.69140625,-0.0179443359375,0.4078369140625,29.72412109375,-63.4765625,33.5693359375
37471.908725666,-0.69140625,-0.0179443359375,0.4078369140625,29.72412109375,-63.4765625,22.94921875
37471.937809583,-0.69873046875,-0.0179443359375,0.4078369140625,29.72412109375,-63.4765625,22.94921875
37471.939858208,-0.69873046875,-0.0897216796875,0.4078369140625,29.72412109375,-63.4765625,22.94921875
37471.939992666,-0.69873046875,-0.0897216796875,0.32666015625,29.72412109375,-63.4765625,22.94921875
37471.940068666,-0.69873046875,-0.0897216796875,0.32666015625,103.02734375,-63.4765625,22.94921875
37471.958639333,-0.7086181640625,-0.0897216796875,0.32666015625,103.02734375,-63.4765625,22.94921875
37471.97560375,-0.7086181640625,-0.148193359375,0.32666015625,103.02734375,-63.4765625,22.94921875
37471.975681666,-0.7086181640625,-0.148193359375,0.2799072265625,103.02734375,-63.4765625,22.94921875
37471.975752833,-0.7086181640625,-0.148193359375,0.2799072265625,103.02734375,-61.6455078125,22.94921875
37471.975822166,-0.7086181640625,-0.148193359375,0.2799072265625,103.02734375,-61.6455078125,8.544921875
37471.983046875,-0.7039794921875,-0.148193359375,0.2799072265625,103.02734375,-61.6455078125,8.544921875
37471.983184,-0.7039794921875,-0.189453125,0.2799072265625,103.02734375,-61.6455078125,8.544921875
37471.983761291,-0.7039794921875,-0.189453125,0.202392578125,103.02734375,-61.6455078125,8.544921875
37471.99835425,-0.7039794921875,-0.189453125,0.202392578125,103.02734375,-63.232421875,8.544921875
37471.998535708,-0.7039794921875,-0.189453125,0.202392578125,103.02734375,-63.232421875,-1.5869140625
37472.028159041,-0.6925048828125,-0.189453125,0.202392578125,103.02734375,-63.232421875,-1.5869140625
37472.028381708,-0.6925048828125,-0.16162109375,0.202392578125,103.02734375,-63.232421875,-1.5869140625
37472.028965625,-0.6925048828125,-0.16162109375,0.1214599609375,103.02734375,-63.232421875,-1.5869140625
37472.029139458,-0.6925048828125,-0.16162109375,0.1214599609375,107.48291015625,-63.232421875,-1.5869140625
37472.05811375,-0.7330322265625,-0.16162109375,0.1214599609375,107.48291015625,-63.232421875,-1.5869140625
37472.059995375,-0.7330322265625,-0.169921875,0.1214599609375,107.48291015625,-63.232421875,-1.5869140625
37472.060373916,-0.7330322265625,-0.169921875,0.00048828125,107.48291015625,-63.232421875,-1.5869140625
37472.06055175,-0.7330322265625,-0.169921875,0.00048828125,107.48291015625,-65.49072265625,-1.5869140625
37472.088257,-0.7684326171875,-0.169921875,0.00048828125,107.48291015625,-65.49072265625,-1.5869140625
37472.088497041,-0.7684326171875,-0.185791015625,0.00048828125,107.48291015625,-65.49072265625,-1.5869140625
37472.089087583,-0.7684326171875,-0.185791015625,-0.11328125,107.48291015625,-65.49072265625,-1.5869140625
37472.091803041,-0.7684326171875,-0.185791015625,-0.11328125,107.48291015625,-57.92236328125,-1.5869140625
37472.1092585,-0.8294677734375,-0.185791015625,-0.11328125,107.48291015625,-57.92236328125,-1.5869140625
37472.109342416,-0.8294677734375,-0.130126953125,-0.11328125,107.48291015625,-57.92236328125,-1.5869140625
37472.109412875,-0.8294677734375,-0.130126953125,-0.1890869140625,107.48291015625,-57.92236328125,-1.5869140625
37472.118716375,-0.8294677734375,-0.130126953125,-0.1890869140625,107.48291015625,-48.583984375,-1.5869140625
37472.118908958,-0.8294677734375,-0.130126953125,-0.1890869140625,107.48291015625,-48.583984375,-30.70068359375
37472.132679791,-0.934814453125,-0.130126953125,-0.1890869140625,107.48291015625,-48.583984375,-30.70068359375
37472.132875833,-0.934814453125,-0.0682373046875,-0.1890869140625,107.48291015625,-48.583984375,-30.70068359375
37472.1334065,-0.934814453125,-0.0682373046875,-0.2198486328125,107.48291015625,-48.583984375,-30.70068359375
37472.148256,-0.934814453125,-0.0682373046875,-0.2198486328125,107.48291015625,-36.43798828125,-30.70068359375
37472.148463375,-0.934814453125,-0.0682373046875,-0.2198486328125,107.48291015625,-36.43798828125,-28.3203125
37472.208309125,-1.023193359375,-0.0682373046875,-0.2198486328125,107.48291015625,-36.43798828125,-28.3203125
37472.210209083,-1.023193359375,-0.1524658203125,-0.2198486328125,107.48291015625,-36.43798828125,-28.3203125
37472.210519666,-1.023193359375,-0.1524658203125,-0.2774658203125,107.48291015625,-36.43798828125,-28.3203125
37472.210640875,-1.023193359375,-0.1524658203125,-0.2774658203125,44.49462890625,-36.43798828125,-28.3203125
37472.226030958,-1.061767578125,-0.1524658203125,-0.2774658203125,44.49462890625,-36.43798828125,-28.3203125
37472.2261315,-1.061767578125,-0.1383056640625,-0.2774658203125,44.49462890625,-36.43798828125,-28.3203125
37472.226221916,-1.061767578125,-0.1383056640625,-0.220458984375,44.49462890625,-36.43798828125,-28.3203125
37472.24301,-1.061767578125,-0.1383056640625,-0.220458984375,44.49462890625,-9.521484375,-28.3203125
37472.243108875,-1.061767578125,-0.1383056640625,-0.220458984375,44.49462890625,-9.521484375,-14.70947265625
37472.253345666,-1.071044921875,-0.1383056640625,-0.220458984375,44.49462890625,-9.521484375,-14.70947265625
37472.258847875,-1.071044921875,-0.176513671875,-0.220458984375,44.49462890625,-9.521484375,-14.70947265625
37472.259083166,-1.071044921875,-0.176513671875,-0.140869140625,44.49462890625,-9.521484375,-14.70947265625
37472.268240416,-1.071044921875,-0.176513671875,-0.140869140625,44.49462890625,2.13623046875,-14.70947265625
37472.268425375,-1.071044921875,-0.176513671875,-0.140869140625,44.49462890625,2.13623046875,-4.69970703125
37472.28284275,-1.056396484375,-0.176513671875,-0.140869140625,44.49462890625,2.13623046875,-4.69970703125
37472.283034583,-1.056396484375,-0.2066650390625,-0.140869140625,44.49462890625,2.13623046875,-4.69970703125
37472.283432291,-1.056396484375,-0.2066650390625,-0.091796875,44.49462890625,2.13623046875,-4.69970703125
37472.298704,-1.056396484375,-0.2066650390625,-0.091796875,44.49462890625,5.18798828125,-4.69970703125
37472.298897708,-1.056396484375,-0.2066650390625,-0.091796875,44.49462890625,5.18798828125,-1.52587890625
37472.343777083,-1.036376953125,-0.2066650390625,-0.091796875,44.49462890625,5.18798828125,-1.52587890625
37472.34392525,-1.036376953125,-0.19775390625,-0.091796875,44.49462890625,5.18798828125,-1.52587890625
37472.344318208,-1.036376953125,-0.19775390625,-0.0335693359375,44.49462890625,5.18798828125,-1.52587890625
37472.344447833,-1.036376953125,-0.19775390625,-0.0335693359375,23.8037109375,5.18798828125,-1.52587890625
37472.375453083,-1.0460205078125,-0.19775390625,-0.0335693359375,23.8037109375,5.18798828125,-1.52587890625
37472.375533,-1.0460205078125,-0.2376708984375,-0.0335693359375,23.8037109375,5.18798828125,-1.52587890625
37472.37560375,-1.0460205078125,-0.2376708984375,-0.093994140625,23.8037109375,5.18798828125,-1.52587890625
37472.375682416,-1.0460205078125,-0.2376708984375,-0.093994140625,23.8037109375,-0.06103515625,-1.52587890625
37472.375752,-1.0460205078125,-0.2376708984375,-0.093994140625,23.8037109375,-0.06103515625,-3.35693359375
37472.40207925,-1.0267333984375,-0.2376708984375,-0.093994140625,23.8037109375,-0.06103515625,-3.35693359375
37472.408532125,-1.0267333984375,-0.2064208984375,-0.093994140625,23.8037109375,-0.06103515625,-3.35693359375
37472.408611708,-1.0267333984375,-0.2064208984375,-0.0224609375,23.8037109375,-0.06103515625,-3.35693359375
37472.408683666,-1.0267333984375,-0.2064208984375,-0.0224609375,13.00048828125,-0.06103515625,-3.35693359375
37472.418127875,-1.005859375,-0.2064208984375,-0.0224609375,13.00048828125,-0.06103515625,-3.35693359375
37472.418392541,-1.005859375,-0.2017822265625,-0.0224609375,13.00048828125,-0.06103515625,-3.35693359375
37472.425146583,-1.005859375,-0.2017822265625,-0.0089111328125,13.00048828125,-0.06103515625,-3.35693359375
37472.493888708,-1.005859375,-0.2017822265625,-0.0089111328125,13.00048828125,-1.708984375,-3.35693359375
37472.49435475,-1.005859375,-0.2017822265625,-0.0089111328125,13.00048828125,-1.708984375,-4.94384765625
37472.494537666,-1.0338134765625,-0.2017822265625,-0.0089111328125,13.00048828125,-1.708984375,-4.94384765625
37472.494649458,-1.0338134765625,-0.2200927734375,-0.0089111328125,13.00048828125,-1.708984375,-4.94384765625
37472.523000333,-1.0338134765625,-0.2200927734375,-0.0089111328125,13.00048828125,1.52587890625,-4.94384765625
37472.523192208,-1.0338134765625,-0.2200927734375,-0.0089111328125,13.00048828125,1.52587890625,-4.638671875
37472.52440625,-1.00244140625,-0.2200927734375,-0.0089111328125,13.00048828125,1.52587890625,-4.638671875
37472.524584083,-1.00244140625,-0.169189453125,-0.0089111328125,13.00048828125,1.52587890625,-4.638671875
37472.553158541,-1.00244140625,-0.169189453125,-0.0089111328125,13.00048828125,13.36669921875,-4.638671875
37472.559323791,-1.00244140625,-0.169189453125,-0.0089111328125,13.00048828125,13.36669921875,1.15966796875
37472.55962675,-0.98828125,-0.169189453125,-0.0089111328125,13.00048828125,13.36669921875,1.15966796875
37472.559715208,-0.98828125,-0.1844482421875,-0.0089111328125,13.00048828125,13.36669921875,1.15966796875
37472.568085875,-0.98828125,-0.1844482421875,-0.0089111328125,13.00048828125,19.22607421875,1.15966796875
37472.5682885,-0.98828125,-0.1844482421875,-0.0089111328125,13.00048828125,19.22607421875,2.685546875
37472.5827195,-0.985595703125,-0.1844482421875,-0.0089111328125,13.00048828125,19.22607421875,2.685546875
37472.582926666,-0.985595703125,-0.206298828125,-0.0089111328125,13.00048828125,19.22607421875,2.685546875
37472.583509166,-0.985595703125,-0.206298828125,0.0302734375,13.00048828125,19.22607421875,2.685546875
37472.598218208,-0.985595703125,-0.206298828125,0.0302734375,13.00048828125,24.47509765625,2.685546875
37472.598401958,-0.985595703125,-0.206298828125,0.0302734375,13.00048828125,24.47509765625,5.18798828125
37472.6133245,-0.9749755859375,-0.206298828125,0.0302734375,13.00048828125,24.47509765625,5.18798828125
37472.6135005,-0.9749755859375,-0.207275390625,0.0302734375,13.00048828125,24.47509765625,5.18798828125
37472.614528333,-0.9749755859375,-0.207275390625,0.0933837890625,13.00048828125,24.47509765625,5.18798828125
37472.627964791,-0.9749755859375,-0.207275390625,0.0933837890625,13.00048828125,25.08544921875,5.18798828125
37472.628102916,-0.9749755859375,-0.207275390625,0.0933837890625,13.00048828125,25.08544921875,7.080078125
37472.643512375,-0.9842529296875,-0.207275390625,0.0933837890625,13.00048828125,25.08544921875,7.080078125
37472.6436725,-0.9842529296875,-0.2147216796875,0.0933837890625,13.00048828125,25.08544921875,7.080078125
37472.645147916,-0.9842529296875,-0.2147216796875,0.112060546875,13.00048828125,25.08544921875,7.080078125
37472.672981291,-0.9842529296875,-0.2147216796875,0.112060546875,13.00048828125,22.0947265625,7.080078125
37472.6731685,-0.9842529296875,-0.2147216796875,0.112060546875,13.00048828125,22.0947265625,6.77490234375
37472.67386275,-0.988037109375,-0.2147216796875,0.112060546875,13.00048828125,22.0947265625,6.77490234375
37472.674036541,-0.988037109375,-0.2230224609375,0.112060546875,13.00048828125,22.0947265625,6.77490234375
37472.692361375,-0.988037109375,-0.2230224609375,0.112060546875,13.00048828125,18.37158203125,6.77490234375
37472.692440541,-0.988037109375,-0.2230224609375,0.112060546875,13.00048828125,18.37158203125,6.16455078125
37472.717799541,-0.9935302734375,-0.2230224609375,0.112060546875,13.00048828125,18.37158203125,6.16455078125
37472.717950791,-0.9935302734375,-0.231689453125,0.112060546875,13.00048828125,18.37158203125,6.16455078125
37472.725325125,-0.9935302734375,-0.231689453125,0.16064453125,13.00048828125,18.37158203125,6.16455078125
37472.725400666,-0.9935302734375,-0.231689453125,0.16064453125,-1.52587890625,18.37158203125,6.16455078125
37472.733468583,-0.99072265625,-0.231689453125,0.16064453125,-1.52587890625,18.37158203125,6.16455078125
37472.7336025,-0.99072265625,-0.2193603515625,0.16064453125,-1.52587890625,18.37158203125,6.16455078125
37472.748241958,-0.99072265625,-0.2193603515625,0.16162109375,-1.52587890625,18.37158203125,6.16455078125
37472.748410125,-0.99072265625,-0.2193603515625,0.16162109375,-1.52587890625,10.25390625,6.16455078125
37472.748954291,-0.99072265625,-0.2193603515625,0.16162109375,-1.52587890625,10.25390625,6.28662109375
37472.776753541,-1.00244140625,-0.2193603515625,0.16162109375,-1.52587890625,10.25390625,6.28662109375
37472.777725791,-1.00244140625,-0.239501953125,0.16162109375,-1.52587890625,10.25390625,6.28662109375
37472.791930541,-1.00244140625,-0.239501953125,0.1156005859375,-1.52587890625,10.25390625,6.28662109375
37472.791996833,-1.00244140625,-0.239501953125,0.1156005859375,-1.52587890625,7.568359375,6.28662109375
37472.792503875,-0.9967041015625,-0.239501953125,0.1156005859375,-1.52587890625,7.568359375,6.28662109375
37472.792644583,-0.9967041015625,-0.223876953125,0.1156005859375,-1.52587890625,7.568359375,6.28662109375
37472.793456125,-0.9967041015625,-0.223876953125,0.1539306640625,-1.52587890625,7.568359375,6.28662109375
37472.809093625,-0.9967041015625,-0.223876953125,0.1539306640625,-1.52587890625,5.92041015625,6.28662109375
37472.809165375,-0.9967041015625,-0.223876953125,0.1539306640625,-1.52587890625,5.92041015625,7.75146484375
37472.838016125,-0.9913330078125,-0.223876953125,0.1539306640625,-1.52587890625,5.92041015625,7.75146484375
37472.838167791,-0.9913330078125,-0.2178955078125,0.1539306640625,-1.52587890625,5.92041015625,7.75146484375
37472.83908525,-0.9913330078125,-0.2178955078125,0.155517578125,-1.52587890625,5.92041015625,7.75146484375
37472.839232125,-0.9913330078125,-0.2178955078125,0.155517578125,-4.94384765625,5.92041015625,7.75146484375
37472.858433833,-1.0048828125,-0.2178955078125,0.155517578125,-4.94384765625,5.92041015625,7.75146484375
37472.85850775,-1.0048828125,-0.224609375,0.155517578125,-4.94384765625,5.92041015625,7.75146484375
37472.8585695,-1.0048828125,-0.224609375,0.1346435546875,-4.94384765625,5.92041015625,7.75146484375
37472.868123458,-1.0048828125,-0.224609375,0.1346435546875,-4.94384765625,2.13623046875,7.75146484375
37472.868263875,-1.0048828125,-0.224609375,0.1346435546875,-4.94384765625,2.13623046875,7.75146484375
37472.882745375,-1.00244140625,-0.224609375,0.1346435546875,-4.94384765625,2.13623046875,7.75146484375
37472.882880125,-1.00244140625,-0.234130859375,0.1346435546875,-4.94384765625,2.13623046875,7.75146484375
37472.883547458,-1.00244140625,-0.234130859375,0.141357421875,-4.94384765625,2.13623046875,7.75146484375
37472.912990916,-1.00244140625,-0.234130859375,0.141357421875,-4.94384765625,1.0986328125,7.75146484375
37472.916407583,-1.00244140625,-0.234130859375,0.141357421875,-4.94384765625,1.0986328125,8.97216796875
37472.916602708,-0.9879150390625,-0.234130859375,0.141357421875,-4.94384765625,1.0986328125,8.97216796875
NEW_REP,,,,,,
37472.941837625,-0.9879150390625,-0.234130859375,0.165771484375,-4.94384765625,1.0986328125,8.97216796875
37472.941905833,-0.9879150390625,-0.234130859375,0.165771484375,-6.65283203125,1.0986328125,8.97216796875
37472.941965625,-0.9879150390625,-0.234130859375,0.165771484375,-6.65283203125,-1.46484375,8.97216796875
37472.942844125,-0.9588623046875,-0.234130859375,0.165771484375,-6.65283203125,-1.46484375,8.97216796875
37472.958554791,-0.9588623046875,-0.218017578125,0.165771484375,-6.65283203125,-1.46484375,8.97216796875
37472.95862275,-0.9588623046875,-0.218017578125,0.1533203125,-6.65283203125,-1.46484375,8.97216796875
37472.958713375,-0.9588623046875,-0.218017578125,0.1533203125,-6.65283203125,-5.615234375,8.97216796875
37472.958867708,-0.9588623046875,-0.218017578125,0.1533203125,-6.65283203125,-5.615234375,6.9580078125
37472.975075166,-0.949462890625,-0.218017578125,0.1533203125,-6.65283203125,-5.615234375,6.9580078125
37472.975145291,-0.949462890625,-0.2430419921875,0.1533203125,-6.65283203125,-5.615234375,6.9580078125
37472.975206208,-0.949462890625,-0.2430419921875,0.12939453125,-6.65283203125,-5.615234375,6.9580078125
37473.016751875,-0.949462890625,-0.2430419921875,0.12939453125,-6.65283203125,-8.72802734375,6.9580078125
37473.019531041,-0.949462890625,-0.2430419921875,0.12939453125,-6.65283203125,-8.72802734375,5.06591796875
37473.019681458,-0.9615478515625,-0.2430419921875,0.12939453125,-6.65283203125,-8.72802734375,5.06591796875
37473.021522583,-0.9615478515625,-0.2161865234375,0.12939453125,-6.65283203125,-8.72802734375,5.06591796875
37473.048040916,-0.9615478515625,-0.2161865234375,0.12939453125,-6.65283203125,-11.04736328125,5.06591796875
37473.048181333,-0.9615478515625,-0.2161865234375,0.12939453125,-6.65283203125,-11.04736328125,3.47900390625
37473.04868125,-1.01318359375,-0.2161865234375,0.12939453125,-6.65283203125,-11.04736328125,3.47900390625
37473.048824083,-1.01318359375,-0.2408447265625,0.12939453125,-6.65283203125,-11.04736328125,3.47900390625
37473.064148041,-1.01318359375,-0.2408447265625,0.12939453125,-6.65283203125,-13.48876953125,3.47900390625
37473.064291125,-1.01318359375,-0.2408447265625,0.12939453125,-6.65283203125,-13.48876953125,3.5400390625
37473.092763541,-1.102294921875,-0.2408447265625,0.12939453125,-6.65283203125,-13.48876953125,3.5400390625
37473.092886708,-1.102294921875,-0.2757568359375,0.12939453125,-6.65283203125,-13.48876953125,3.5400390625
37473.09376825,-1.102294921875,-0.2757568359375,0.1046142578125,-6.65283203125,-13.48876953125,3.5400390625
37473.093906333,-1.102294921875,-0.2757568359375,0.1046142578125,-4.69970703125,-13.48876953125,3.5400390625
37473.108625875,-1.150390625,-0.2757568359375,0.1046142578125,-4.69970703125,-13.48876953125,3.5400390625
37473.108687375,-1.150390625,-0.2728271484375,0.1046142578125,-4.69970703125,-13.48876953125,3.5400390625
37473.108740791,-1.150390625,-0.2728271484375,0.1253662109375,-4.69970703125,-13.48876953125,3.5400390625
37473.136992375,-1.150390625,-0.2728271484375,0.1253662109375,-4.69970703125,-15.0146484375,3.5400390625
37473.158586708,-1.150390625,-0.2728271484375,0.1253662109375,-4.69970703125,-15.0146484375,10.43701171875
37473.167791291,-1.197021484375,-0.2728271484375,0.1253662109375,-4.69970703125,-15.0146484375,10.43701171875
37473.167943041,-1.197021484375,-0.2728271484375,0.13720703125,-4.69970703125,-15.0146484375,10.43701171875
37473.17546325,-1.197021484375,-0.2728271484375,0.13720703125,-4.0283203125,-15.0146484375,10.43701171875
37473.175523,-1.2420654296875,-0.2728271484375,0.13720703125,-4.0283203125,-15.0146484375,10.43701171875
37473.182690208,-1.2420654296875,-0.2728271484375,0.1346435546875,-4.0283203125,-15.0146484375,10.43701171875
37473.182809541,-1.2420654296875,-0.2728271484375,0.1346435546875,2.3193359375,-15.0146484375,10.43701171875
37473.183832083,-1.2420654296875,-0.2728271484375,0.1346435546875,2.3193359375,-13.671875,10.43701171875
37473.198483083,-1.301513671875,-0.2728271484375,0.1346435546875,2.3193359375,-13.671875,10.43701171875
37473.198685083,-1.301513671875,-0.3658447265625,0.1346435546875,2.3193359375,-13.671875,10.43701171875
37473.1987665,-1.301513671875,-0.3658447265625,0.1217041015625,2.3193359375,-13.671875,10.43701171875
37473.21301375,-1.301513671875,-0.3658447265625,0.1217041015625,2.3193359375,-14.404296875,10.43701171875
37473.213157833,-1.301513671875,-0.3658447265625,0.1217041015625,2.3193359375,-14.404296875,21.484375
37473.242011333,-1.265869140625,-0.3658447265625,0.1217041015625,2.3193359375,-14.404296875,21.484375
37473.272303333,-1.265869140625,-0.3687744140625,0.1217041015625,2.3193359375,-14.404296875,21.484375
37473.273592125,-1.265869140625,-0.3687744140625,0.134033203125,2.3193359375,-14.404296875,21.484375
37473.3030445,-1.265869140625,-0.3687744140625,0.134033203125,2.3193359375,-14.7705078125,21.484375
37473.303233375,-1.2601318359375,-0.3687744140625,0.134033203125,2.3193359375,-14.7705078125,21.484375
37473.304345958,-1.2601318359375,-0.3687744140625,0.0955810546875,2.3193359375,-14.7705078125,21.484375
37473.304540375,-1.2601318359375,-0.3687744140625,0.0955810546875,4.21142578125,-14.7705078125,21.484375
37473.325698125,-1.2601318359375,-0.3687744140625,0.0955810546875,4.21142578125,-14.7705078125,23.5595703125
37473.332895916,-1.2208251953125,-0.3687744140625,0.0955810546875,4.21142578125,-14.7705078125,23.5595703125
37473.333066291,-1.2208251953125,-0.276123046875,0.0955810546875,4.21142578125,-14.7705078125,23.5595703125
37473.34776925,-1.2208251953125,-0.276123046875,0.0318603515625,4.21142578125,-14.7705078125,23.5595703125
37473.347986916,-1.2208251953125,-0.276123046875,0.0318603515625,4.21142578125,-6.16455078125,23.5595703125
37473.348096041,-1.2208251953125,-0.276123046875,0.0318603515625,4.21142578125,-6.16455078125,20.1416015625
37473.378405,-1.1468505859375,-0.276123046875,0.0318603515625,4.21142578125,-6.16455078125,20.1416015625
37473.379980041,-1.1468505859375,-0.2740478515625,0.0318603515625,4.21142578125,-6.16455078125,20.1416015625
37473.380205125,-1.1468505859375,-0.2740478515625,0.031005859375,4.21142578125,-6.16455078125,20.1416015625
37473.392219541,-1.1468505859375,-0.2740478515625,0.031005859375,14.95361328125,-6.16455078125,20.1416015625
37473.409483666,-1.095458984375,-0.2740478515625,0.031005859375,14.95361328125,-6.16455078125,20.1416015625
37473.409562625,-1.095458984375,-0.2919921875,0.031005859375,14.95361328125,-6.16455078125,20.1416015625
37473.409634375,-1.095458984375,-0.2919921875,0.000732421875,14.95361328125,-6.16455078125,20.1416015625
37473.410690708,-1.095458984375,-0.2919921875,0.000732421875,19.83642578125,-6.16455078125,20.1416015625
37473.42551125,-1.0848388671875,-0.2919921875,0.000732421875,19.83642578125,-6.16455078125,20.1416015625
37473.425584375,-1.0848388671875,-0.2720947265625,0.000732421875,19.83642578125,-6.16455078125,20.1416015625
37473.425653208,-1.0848388671875,-0.2720947265625,-0.001953125,19.83642578125,-6.16455078125,20.1416015625
37473.442130833,-1.0848388671875,-0.2720947265625,-0.001953125,19.83642578125,7.38525390625,20.1416015625
37473.442213041,-1.0848388671875,-0.2720947265625,-0.001953125,19.83642578125,7.38525390625,9.3994140625
37473.482950125,-0.9693603515625,-0.2720947265625,-0.001953125,19.83642578125,7.38525390625,9.3994140625
37473.48312575,-0.9693603515625,-0.2325439453125,-0.001953125,19.83642578125,7.38525390625,9.3994140625
37473.483955125,-0.9693603515625,-0.2325439453125,0.0379638671875,19.83642578125,7.38525390625,9.3994140625
37473.508982958,-0.9693603515625,-0.2325439453125,0.0379638671875,19.83642578125,14.70947265625,9.3994140625
37473.509059416,-0.9693603515625,-0.2325439453125,0.0379638671875,19.83642578125,14.70947265625,4.33349609375
37473.542859958,-0.9169921875,-0.2325439453125,0.0379638671875,19.83642578125,14.70947265625,4.33349609375
37473.546448625,-0.9169921875,-0.249267578125,0.0379638671875,19.83642578125,14.70947265625,4.33349609375
37473.546675333,-0.9169921875,-0.249267578125,0.0052490234375,19.83642578125,14.70947265625,4.33349609375
37473.546804625,-0.9169921875,-0.249267578125,0.0052490234375,23.62060546875,14.70947265625,4.33349609375
37473.558959416,-0.9287109375,-0.249267578125,0.0052490234375,23.62060546875,14.70947265625,4.33349609375
37473.603149541,-0.9287109375,-0.2257080078125,0.0052490234375,23.62060546875,14.70947265625,4.33349609375
37473.632328083,-0.9287109375,-0.2257080078125,0.0833740234375,23.62060546875,14.70947265625,4.33349609375
37473.662925625,-0.9287109375,-0.2257080078125,0.0833740234375,23.62060546875,22.8271484375,4.33349609375
37473.663077041,-0.9287109375,-0.2257080078125,0.0833740234375,23.62060546875,22.8271484375,-11.23046875
37473.663885291,-0.9287109375,-0.23046875,0.0833740234375,23.62060546875,22.8271484375,-11.23046875
37473.664085,-0.9287109375,-0.23046875,0.0833740234375,18.06640625,22.8271484375,-11.23046875
37473.677753,-0.9287109375,-0.23046875,0.0833740234375,18.06640625,22.8271484375,-22.4609375
37473.707485541,-0.798828125,-0.23046875,0.0833740234375,18.06640625,22.8271484375,-22.4609375
37473.708897083,-0.798828125,-0.324462890625,0.0833740234375,18.06640625,22.8271484375,-22.4609375
37473.709089416,-0.798828125,-0.324462890625,0.0570068359375,18.06640625,22.8271484375,-22.4609375
37473.723072125,-0.798828125,-0.324462890625,0.0570068359375,18.06640625,24.71923828125,-22.4609375
37473.723248,-0.798828125,-0.324462890625,0.0570068359375,18.06640625,24.71923828125,-59.75341796875
37473.751704916,-0.5269775390625,-0.324462890625,0.0570068359375,18.06640625,24.71923828125,-59.75341796875
37473.759260708,-0.5269775390625,0.0208740234375,0.0570068359375,18.06640625,24.71923828125,-59.75341796875
37473.798130708,-0.5269775390625,0.0208740234375,0.2017822265625,18.06640625,24.71923828125,-59.75341796875
37473.798214375,-0.5269775390625,0.0208740234375,0.2017822265625,8.4228515625,24.71923828125,-59.75341796875
37473.798861833,-0.641357421875,0.0208740234375,0.2017822265625,8.4228515625,24.71923828125,-59.75341796875
37473.827885541,-0.641357421875,-0.13330078125,0.2017822265625,8.4228515625,24.71923828125,-59.75341796875
37473.82804175,-0.641357421875,-0.13330078125,0.2017822265625,12.939453125,24.71923828125,-59.75341796875
37473.828696583,-0.641357421875,-0.13330078125,0.2017822265625,12.939453125,19.04296875,-59.75341796875
37473.831264666,-0.641357421875,-0.13330078125,0.2017822265625,12.939453125,19.04296875,-53.03955078125
37473.842703583,-0.6688232421875,-0.13330078125,0.2017822265625,12.939453125,19.04296875,-53.03955078125
37473.842831791,-0.6688232421875,-0.25390625,0.2017822265625,12.939453125,19.04296875,-53.03955078125
37473.843275166,-0.6688232421875,-0.25390625,0.1669921875,12.939453125,19.04296875,-53.03955078125
37473.858511458,-0.6688232421875,-0.25390625,0.1669921875,12.939453125,19.04296875,1.40380859375
37473.875393625,-0.6357421875,-0.25390625,0.1669921875,12.939453125,19.04296875,1.40380859375
37473.875461666,-0.6357421875,-0.4412841796875,0.1669921875,12.939453125,19.04296875,1.40380859375
37473.8755215,-0.6357421875,-0.4412841796875,0.1878662109375,12.939453125,19.04296875,1.40380859375
37473.902830291,-0.6357421875,-0.4412841796875,0.1878662109375,12.939453125,9.1552734375,1.40380859375
37473.902979833,-0.6357421875,-0.4412841796875,0.1878662109375,12.939453125,9.1552734375,16.66259765625
37473.903824375,-0.5791015625,-0.4412841796875,0.1878662109375,12.939453125,9.1552734375,16.66259765625
37473.903959333,-0.5791015625,-0.379638671875,0.1878662109375,12.939453125,9.1552734375,16.66259765625
37473.934173125,-0.5791015625,-0.379638671875,0.1878662109375,12.939453125,-0.48828125,16.66259765625
37473.9343375,-0.5791015625,-0.379638671875,0.1878662109375,12.939453125,-0.48828125,26.85546875
37473.962988875,-0.7327880859375,-0.379638671875,0.1878662109375,12.939453125,-0.48828125,26.85546875
37473.963144541,-0.7327880859375,-0.583984375,0.1878662109375,12.939453125,-0.48828125,26.85546875
37473.963731875,-0.7327880859375,-0.583984375,0.0616455078125,12.939453125,-0.48828125,26.85546875
37473.992817666,-0.6531982421875,-0.583984375,0.0616455078125,12.939453125,-0.48828125,26.85546875
37473.994443041,-0.6531982421875,-0.5157470703125,0.0616455078125,12.939453125,-0.48828125,26.85546875
37474.008379416,-0.6531982421875,-0.5157470703125,0.1478271484375,12.939453125,-0.48828125,26.85546875
37474.008551791,-0.6531982421875,-0.5157470703125,0.1478271484375,12.939453125,-9.58251953125,26.85546875
37474.111905875,-0.5626220703125,-0.5157470703125,0.1478271484375,12.939453125,-9.58251953125,26.85546875
37474.113679666,-0.5626220703125,-0.3138427734375,0.1478271484375,12.939453125,-9.58251953125,26.85546875
37474.11376075,-0.5626220703125,-0.3138427734375,0.0989990234375,12.939453125,-9.58251953125,26.85546875
37474.127640541,-0.5626220703125,-0.3138427734375,0.0989990234375,12.939453125,-9.58251953125,31.494140625
37474.127732666,-0.5626220703125,-0.2637939453125,0.0989990234375,12.939453125,-9.58251953125,31.494140625
37474.128709708,-0.5626220703125,-0.2637939453125,0.203369140625,12.939453125,-9.58251953125,31.494140625
37474.143062958,-0.5626220703125,-0.2637939453125,0.203369140625,9.3994140625,-9.58251953125,31.494140625
37474.143168375,-0.5626220703125,-0.2637939453125,0.203369140625,9.3994140625,-9.58251953125,36.1328125
37474.159709833,-0.7952880859375,-0.2637939453125,0.203369140625,9.3994140625,-9.58251953125,36.1328125
37474.159980291,-0.7952880859375,-0.1917724609375,0.203369140625,9.3994140625,-9.58251953125,36.1328125
37474.160093041,-0.7952880859375,-0.1917724609375,0.154052734375,9.3994140625,-9.58251953125,36.1328125
37474.176207583,-0.7952880859375,-0.1917724609375,0.154052734375,9.3994140625,-4.39453125,36.1328125
37474.176302375,-0.7952880859375,-0.1917724609375,0.154052734375,9.3994140625,-4.39453125,14.22119140625
37474.192891416,-0.8377685546875,-0.1917724609375,0.154052734375,9.3994140625,-4.39453125,14.22119140625
37474.19298675,-0.8377685546875,-0.1571044921875,0.154052734375,9.3994140625,-4.39453125,14.22119140625
37474.23261825,-0.8377685546875,-0.1571044921875,0.1903076171875,9.3994140625,-4.39453125,14.22119140625
37474.232875041,-0.8377685546875,-0.1571044921875,0.1903076171875,9.3994140625,0.732421875,14.22119140625
37474.233997416,-0.8377685546875,-0.1571044921875,0.1903076171875,9.3994140625,0.732421875,13.00048828125
37474.234212583,-0.98779296875,-0.1571044921875,0.1903076171875,9.3994140625,0.732421875,13.00048828125
37474.259953458,-0.98779296875,-0.1571044921875,0.141357421875,9.3994140625,0.732421875,13.00048828125
37474.260032416,-0.98779296875,-0.1571044921875,0.141357421875,13.24462890625,0.732421875,13.00048828125
37474.260103583,-0.98779296875,-0.1571044921875,0.141357421875,13.24462890625,3.41796875,13.00048828125
37474.262630083,-0.891845703125,-0.1571044921875,0.141357421875,13.24462890625,3.41796875,13.00048828125
37474.26276825,-0.891845703125,-0.252685546875,0.141357421875,13.24462890625,3.41796875,13.00048828125
37474.2633735,-0.891845703125,-0.252685546875,0.1436767578125,13.24462890625,3.41796875,13.00048828125
37474.277827416,-0.891845703125,-0.252685546875,0.1436767578125,13.24462890625,12.939453125,13.00048828125
37474.293206833,-0.891845703125,-0.252685546875,0.1436767578125,13.24462890625,12.939453125,3.41796875
37474.293473291,-1.119140625,-0.252685546875,0.1436767578125,13.24462890625,12.939453125,3.41796875
37474.293583541,-1.119140625,-0.22607421875,0.1436767578125,13.24462890625,12.939453125,3.41796875
37474.294071083,-1.119140625,-0.22607421875,0.1409912109375,13.24462890625,12.939453125,3.41796875
37474.309417708,-1.119140625,-0.22607421875,0.1409912109375,13.24462890625,16.54052734375,3.41796875
37474.309507291,-1.119140625,-0.22607421875,0.1409912109375,13.24462890625,16.54052734375,-7.75146484375
37474.326199208,-0.9298095703125,-0.22607421875,0.1409912109375,13.24462890625,16.54052734375,-7.75146484375
37474.326292416,-0.9298095703125,-0.17138671875,0.1409912109375,13.24462890625,16.54052734375,-7.75146484375
37474.326377375,-0.9298095703125,-0.17138671875,0.2191162109375,13.24462890625,16.54052734375,-7.75146484375
37474.342970333,-0.9298095703125,-0.17138671875,0.2191162109375,13.24462890625,18.5546875,-7.75146484375
37474.343061416,-0.9298095703125,-0.17138671875,0.2191162109375,13.24462890625,18.5546875,-12.5732421875
37474.352803291,-0.9432373046875,-0.17138671875,0.2191162109375,13.24462890625,18.5546875,-12.5732421875
37474.353013875,-0.9432373046875,-0.1593017578125,0.2191162109375,13.24462890625,18.5546875,-12.5732421875
37474.359358666,-0.9432373046875,-0.1593017578125,0.2427978515625,13.24462890625,18.5546875,-12.5732421875
37474.368016958,-0.9432373046875,-0.1593017578125,0.2427978515625,13.24462890625,9.1552734375,-12.5732421875
37474.368217916,-0.9432373046875,-0.1593017578125,0.2427978515625,13.24462890625,9.1552734375,-20.81298828125
37474.383384375,-1.1019287109375,-0.1593017578125,0.2427978515625,13.24462890625,9.1552734375,-20.81298828125
37474.383685291,-1.1019287109375,-0.2003173828125,0.2427978515625,13.24462890625,9.1552734375,-20.81298828125
37474.384187208,-1.1019287109375,-0.2003173828125,0.2437744140625,13.24462890625,9.1552734375,-20.81298828125
37474.398117333,-1.1019287109375,-0.2003173828125,0.2437744140625,13.24462890625,5.7373046875,-20.81298828125
37474.412852916,-1.1019287109375,-0.2003173828125,0.2437744140625,13.24462890625,5.7373046875,-24.10888671875
37474.413054166,-1.0899658203125,-0.2003173828125,0.2437744140625,13.24462890625,5.7373046875,-24.10888671875
37474.413954458,-1.0899658203125,-0.1715087890625,0.2437744140625,13.24462890625,5.7373046875,-24.10888671875
37474.414162333,-1.0899658203125,-0.1715087890625,0.2152099609375,13.24462890625,5.7373046875,-24.10888671875
37474.428437791,-1.0899658203125,-0.1715087890625,0.2152099609375,13.24462890625,1.40380859375,-24.10888671875
37474.428629041,-1.0899658203125,-0.1715087890625,0.2152099609375,13.24462890625,1.40380859375,-31.06689453125
37474.442773958,-1.058349609375,-0.1715087890625,0.2152099609375,13.24462890625,1.40380859375,-31.06689453125
37474.442865583,-1.058349609375,-0.1875,0.2152099609375,13.24462890625,1.40380859375,-31.06689453125
37474.443438375,-1.058349609375,-0.1875,0.1787109375,13.24462890625,1.40380859375,-31.06689453125
37474.459387708,-1.058349609375,-0.1875,0.1787109375,13.24462890625,0.42724609375,-31.06689453125
37474.459477958,-1.058349609375,-0.1875,0.1787109375,13.24462890625,0.42724609375,-33.75244140625
37474.488011708,-1.1248779296875,-0.1875,0.1787109375,13.24462890625,0.42724609375,-33.75244140625
37474.48818475,-1.1248779296875,-0.191650390625,0.1787109375,13.24462890625,0.42724609375,-33.75244140625
37474.489626166,-1.1248779296875,-0.191650390625,0.15380859375,13.24462890625,0.42724609375,-33.75244140625
37474.489852583,-1.1248779296875,-0.191650390625,0.15380859375,13.24462890625,-3.41796875,-33.75244140625
37474.509804,-1.2034912109375,-0.191650390625,0.15380859375,13.24462890625,-3.41796875,-33.75244140625
37474.509901416,-1.2034912109375,-0.1490478515625,0.15380859375,13.24462890625,-3.41796875,-33.75244140625
37474.509987541,-1.2034912109375,-0.1490478515625,0.1575927734375,13.24462890625,-3.41796875,-33.75244140625
37474.518775166,-1.2034912109375,-0.1490478515625,0.1575927734375,13.24462890625,0.54931640625,-33.75244140625
37474.518982083,-1.2034912109375,-0.1490478515625,0.1575927734375,13.24462890625,0.54931640625,-44.00634765625
37474.534291375,-1.3134765625,-0.1490478515625,0.1575927734375,13.24462890625,0.54931640625,-44.00634765625
37474.534523416,-1.3134765625,-0.1160888671875,0.1575927734375,13.24462890625,0.54931640625,-44.00634765625
37474.534648041,-1.3134765625,-0.1160888671875,0.182373046875,13.24462890625,0.54931640625,-44.00634765625
37474.548409041,-1.3134765625,-0.1160888671875,0.182373046875,13.24462890625,2.99072265625,-44.00634765625
37474.548613,-1.3134765625,-0.1160888671875,0.182373046875,13.24462890625,2.99072265625,-42.29736328125
37474.591629666,-1.3826904296875,-0.1160888671875,0.182373046875,13.24462890625,2.99072265625,-42.29736328125
37474.596048791,-1.3826904296875,-0.1341552734375,0.182373046875,13.24462890625,2.99072265625,-42.29736328125
37474.5961185,-1.3826904296875,-0.1341552734375,0.1619873046875,13.24462890625,2.99072265625,-42.29736328125
37474.59617425,-1.3826904296875,-0.1341552734375,0.1619873046875,-2.197265625,2.99072265625,-42.29736328125
37474.609351416,-1.4146728515625,-0.1341552734375,0.1619873046875,-2.197265625,2.99072265625,-42.29736328125
37474.609407125,-1.4146728515625,-0.1463623046875,0.1619873046875,-2.197265625,2.99072265625,-42.29736328125
37474.609455666,-1.4146728515625,-0.1463623046875,0.18603515625,-2.197265625,2.99072265625,-42.29736328125
37474.636412666,-1.4146728515625,-0.1463623046875,0.18603515625,-2.197265625,4.5166015625,-42.29736328125
37474.638788,-1.4146728515625,-0.1463623046875,0.18603515625,-2.197265625,4.5166015625,-24.4140625
37474.638923,-1.36328125,-0.1463623046875,0.18603515625,-2.197265625,4.5166015625,-24.4140625
37474.638993958,-1.36328125,-0.124267578125,0.18603515625,-2.197265625,4.5166015625,-24.4140625
37474.657215958,-1.36328125,-0.124267578125,0.18603515625,-2.197265625,5.18798828125,-24.4140625
37474.657260458,-1.36328125,-0.124267578125,0.18603515625,-2.197265625,5.18798828125,-13.3056640625
37474.682738791,-1.2418212890625,-0.124267578125,0.18603515625,-2.197265625,5.18798828125,-13.3056640625
37474.68282275,-1.2418212890625,-0.117431640625,0.18603515625,-2.197265625,5.18798828125,-13.3056640625
37474.690396458,-1.2418212890625,-0.117431640625,0.222900390625,-2.197265625,5.18798828125,-13.3056640625
37474.690442,-1.2418212890625,-0.117431640625,0.222900390625,2.50244140625,5.18798828125,-13.3056640625
37474.699150041,-1.1878662109375,-0.117431640625,0.222900390625,2.50244140625,5.18798828125,-13.3056640625
37474.699249208,-1.1878662109375,-0.097900390625,0.222900390625,2.50244140625,5.18798828125,-13.3056640625
37474.699287666,-1.1878662109375,-0.097900390625,0.2039794921875,2.50244140625,5.18798828125,-13.3056640625
37474.713056791,-1.1878662109375,-0.097900390625,0.2039794921875,2.50244140625,5.67626953125,-13.3056640625
37474.713145541,-1.1878662109375,-0.097900390625,0.2039794921875,2.50244140625,5.67626953125,-4.638671875
37474.727955458,-1.16748046875,-0.097900390625,0.2039794921875,2.50244140625,5.67626953125,-4.638671875
37474.728067625,-1.16748046875,-0.08984375,0.2039794921875,2.50244140625,5.67626953125,-4.638671875
37474.728132208,-1.16748046875,-0.08984375,0.1719970703125,2.50244140625,5.67626953125,-4.638671875
37474.756307708,-1.16748046875,-0.08984375,0.1719970703125,2.50244140625,6.77490234375,-4.638671875
37474.75864275,-1.16748046875,-0.08984375,0.1719970703125,2.50244140625,6.77490234375,0.244140625
37474.758730208,-1.1224365234375,-0.08984375,0.1719970703125,2.50244140625,6.77490234375,0.244140625
37474.77428,-1.1224365234375,-0.08984375,0.2366943359375,2.50244140625,6.77490234375,0.244140625
37474.790602416,-1.1224365234375,-0.08984375,0.2366943359375,-1.03759765625,6.77490234375,0.244140625
37474.790671791,-1.1224365234375,-0.08984375,0.2366943359375,-1.03759765625,3.96728515625,0.244140625
37474.790706583,-1.1219482421875,-0.08984375,0.2366943359375,-1.03759765625,3.96728515625,0.244140625
37474.790740083,-1.1219482421875,-0.0338134765625,0.2366943359375,-1.03759765625,3.96728515625,0.244140625
37474.790773125,-1.1219482421875,-0.0338134765625,0.2320556640625,-1.03759765625,3.96728515625,0.244140625
NEW_REP,,,,,,
37474.819016375,-1.1219482421875,-0.0338134765625,0.2320556640625,-1.03759765625,-2.197265625,0.244140625
37474.819167291,-1.1219482421875,-0.0338134765625,0.2320556640625,-1.03759765625,-2.197265625,11.962890625
37474.819236,-1.1619873046875,-0.0338134765625,0.2320556640625,-1.03759765625,-2.197265625,11.962890625
37474.819274,-1.1619873046875,-0.0570068359375,0.2320556640625,-1.03759765625,-2.197265625,11.962890625
37474.8407755,-1.1619873046875,-0.0570068359375,0.2320556640625,-1.03759765625,-4.8828125,11.962890625
37474.840815375,-1.1619873046875,-0.0570068359375,0.2320556640625,-1.03759765625,-4.8828125,17.27294921875
37474.862703916,-1.1832275390625,-0.0570068359375,0.2320556640625,-1.03759765625,-4.8828125,17.27294921875
37474.862782375,-1.1832275390625,-0.024658203125,0.2320556640625,-1.03759765625,-4.8828125,17.27294921875
37474.864321833,-1.1832275390625,-0.024658203125,0.2493896484375,-1.03759765625,-4.8828125,17.27294921875
37474.864391041,-1.1832275390625,-0.024658203125,0.2493896484375,-5.55419921875,-4.8828125,17.27294921875
37474.877420125,-1.2056884765625,-0.024658203125,0.2493896484375,-5.55419921875,-4.8828125,17.27294921875
37474.877504583,-1.2056884765625,-0.0352783203125,0.2493896484375,-5.55419921875,-4.8828125,17.27294921875
37474.878322,-1.2056884765625,-0.0352783203125,0.267822265625,-5.55419921875,-4.8828125,17.27294921875
37474.89394175,-1.2056884765625,-0.0352783203125,0.267822265625,-5.55419921875,-14.892578125,17.27294921875
37474.894102291,-1.2056884765625,-0.0352783203125,0.267822265625,-5.55419921875,-14.892578125,34.423828125
37474.9087625,-1.2244873046875,-0.0352783203125,0.267822265625,-5.55419921875,-14.892578125,34.423828125
37474.908856666,-1.2244873046875,-0.1141357421875,0.267822265625,-5.55419921875,-14.892578125,34.423828125
37474.908913708,-1.2244873046875,-0.1141357421875,0.2874755859375,-5.55419921875,-14.892578125,34.423828125
37474.923831541,-1.2244873046875,-0.1141357421875,0.2874755859375,-5.55419921875,-18.73779296875,34.423828125
37474.923873125,-1.2244873046875,-0.1141357421875,0.2874755859375,-5.55419921875,-18.73779296875,39.794921875
37474.940608666,-1.2412109375,-0.1141357421875,0.2874755859375,-5.55419921875,-18.73779296875,39.794921875
37474.940650708,-1.2412109375,-0.123291015625,0.2874755859375,-5.55419921875,-18.73779296875,39.794921875
37474.940689,-1.2412109375,-0.123291015625,0.26318359375,-5.55419921875,-18.73779296875,39.794921875
37474.957188,-1.2412109375,-0.123291015625,0.26318359375,-5.55419921875,-24.59716796875,39.794921875
37474.957238916,-1.2412109375,-0.123291015625,0.26318359375,-5.55419921875,-24.59716796875,44.43359375
37474.967503458,-1.243896484375,-0.123291015625,0.26318359375,-5.55419921875,-24.59716796875,44.43359375
37474.973932041,-1.243896484375,-0.1851806640625,0.26318359375,-5.55419921875,-24.59716796875,44.43359375
37474.974010541,-1.243896484375,-0.1851806640625,0.2197265625,-5.55419921875,-24.59716796875,44.43359375
37474.983850416,-1.243896484375,-0.1851806640625,0.2197265625,-5.55419921875,-30.1513671875,44.43359375
37474.983923666,-1.243896484375,-0.1851806640625,0.2197265625,-5.55419921875,-30.1513671875,46.56982421875
37475.012821375,-1.2596435546875,-0.1851806640625,0.2197265625,-5.55419921875,-30.1513671875,46.56982421875
37475.01524925,-1.2596435546875,-0.216552734375,0.2197265625,-5.55419921875,-30.1513671875,46.56982421875
37475.015301333,-1.2596435546875,-0.216552734375,0.1409912109375,-5.55419921875,-30.1513671875,46.56982421875
37475.057959208,-1.2596435546875,-0.216552734375,0.1409912109375,-5.55419921875,-35.33935546875,46.56982421875
37475.058103791,-1.2596435546875,-0.216552734375,0.1409912109375,-5.55419921875,-35.33935546875,47.607421875
37475.059417875,-1.1917724609375,-0.216552734375,0.1409912109375,-5.55419921875,-35.33935546875,47.607421875
37475.059557666,-1.1917724609375,-0.19140625,0.1409912109375,-5.55419921875,-35.33935546875,47.607421875
37475.074647583,-1.1917724609375,-0.19140625,0.1409912109375,-5.55419921875,-30.09033203125,47.607421875
37475.074703875,-1.1917724609375,-0.19140625,0.1409912109375,-5.55419921875,-30.09033203125,47.05810546875
37475.102717583,-1.1170654296875,-0.19140625,0.1409912109375,-5.55419921875,-30.09033203125,47.05810546875
37475.102829541,-1.1170654296875,-0.239013671875,0.1409912109375,-5.55419921875,-30.09033203125,47.05810546875
37475.1042525,-1.1170654296875,-0.239013671875,0.021240234375,-5.55419921875,-30.09033203125,47.05810546875
37475.132773166,-1.1170654296875,-0.239013671875,0.021240234375,-0.54931640625,-30.09033203125,47.05810546875
37475.132926166,-1.0604248046875,-0.239013671875,0.021240234375,-0.54931640625,-30.09033203125,47.05810546875
37475.133841791,-1.0604248046875,-0.2423095703125,0.021240234375,-0.54931640625,-30.09033203125,47.05810546875
37475.133950083,-1.0604248046875,-0.2423095703125,0.009765625,-0.54931640625,-30.09033203125,47.05810546875
37475.148216083,-1.0604248046875,-0.2423095703125,0.009765625,-0.54931640625,-16.2353515625,47.05810546875
37475.148355708,-1.0604248046875,-0.2423095703125,0.009765625,-0.54931640625,-16.2353515625,36.2548828125
37475.177737833,-0.97412109375,-0.2423095703125,0.009765625,-0.54931640625,-16.2353515625,36.2548828125
37475.177881166,-0.97412109375,-0.239501953125,0.009765625,-0.54931640625,-16.2353515625,36.2548828125
37475.179002083,-0.97412109375,-0.239501953125,0.0048828125,-0.54931640625,-16.2353515625,36.2548828125
37475.179154875,-0.97412109375,-0.239501953125,0.0048828125,5.0048828125,-16.2353515625,36.2548828125
37475.1934255,-0.88330078125,-0.239501953125,0.0048828125,5.0048828125,-16.2353515625,36.2548828125
37475.193538083,-0.88330078125,-0.270751953125,0.0048828125,5.0048828125,-16.2353515625,36.2548828125
37475.222804125,-0.88330078125,-0.270751953125,0.0523681640625,5.0048828125,-16.2353515625,36.2548828125
37475.222948416,-0.88330078125,-0.270751953125,0.0523681640625,5.0048828125,2.38037109375,36.2548828125
37475.253108541,-0.88330078125,-0.270751953125,0.0523681640625,5.0048828125,2.38037109375,27.40478515625
37475.253182333,-0.821533203125,-0.270751953125,0.0523681640625,5.0048828125,2.38037109375,27.40478515625
37475.254375125,-0.821533203125,-0.259521484375,0.0523681640625,5.0048828125,2.38037109375,27.40478515625
37475.254504625,-0.821533203125,-0.259521484375,0.0601806640625,5.0048828125,2.38037109375,27.40478515625
37475.275094625,-0.821533203125,-0.259521484375,0.0601806640625,5.0048828125,2.38037109375,20.01953125
37475.298168166,-0.855224609375,-0.259521484375,0.0601806640625,5.0048828125,2.38037109375,20.01953125
37475.312982416,-0.855224609375,-0.3099365234375,0.0601806640625,5.0048828125,2.38037109375,20.01953125
37475.313135375,-0.855224609375,-0.3099365234375,0.11767578125,5.0048828125,2.38037109375,20.01953125
37475.314202,-0.855224609375,-0.3099365234375,0.11767578125,4.45556640625,2.38037109375,20.01953125
37475.314317916,-0.8441162109375,-0.3099365234375,0.11767578125,4.45556640625,2.38037109375,20.01953125
37475.358345291,-0.8441162109375,-0.3099365234375,0.1533203125,4.45556640625,2.38037109375,20.01953125
37475.388011125,-0.8441162109375,-0.3099365234375,0.1533203125,14.7705078125,2.38037109375,20.01953125
37475.388206958,-0.8441162109375,-0.3099365234375,0.1533203125,14.7705078125,-1.15966796875,20.01953125
37475.388884875,-0.831298828125,-0.3099365234375,0.1533203125,14.7705078125,-1.15966796875,20.01953125
37475.389056166,-0.831298828125,-0.3099365234375,0.122314453125,14.7705078125,-1.15966796875,20.01953125
37475.409253166,-0.831298828125,-0.3099365234375,0.122314453125,14.7705078125,-7.87353515625,20.01953125
37475.409333666,-0.831298828125,-0.3099365234375,0.122314453125,14.7705078125,-7.87353515625,-7.8125
37475.448342541,-0.8314208984375,-0.3099365234375,0.122314453125,14.7705078125,-7.87353515625,-7.8125
37475.452967166,-0.8314208984375,-0.434814453125,0.122314453125,14.7705078125,-7.87353515625,-7.8125
37475.453116375,-0.8314208984375,-0.434814453125,0.057373046875,14.7705078125,-7.87353515625,-7.8125
37475.493182041,-0.8314208984375,-0.434814453125,0.057373046875,-11.65771484375,-7.87353515625,-7.8125
37475.493303541,-0.942626953125,-0.434814453125,0.057373046875,-11.65771484375,-7.87353515625,-7.8125
37475.494305625,-0.942626953125,-0.50146484375,0.057373046875,-11.65771484375,-7.87353515625,-7.8125
37475.494491583,-0.942626953125,-0.50146484375,-0.0902099609375,-11.65771484375,-7.87353515625,-7.8125
37475.509571708,-0.942626953125,-0.50146484375,-0.0902099609375,-11.65771484375,0.79345703125,-7.8125
37475.5096525,-0.942626953125,-0.50146484375,-0.0902099609375,-11.65771484375,0.79345703125,-27.587890625
37475.551773083,-0.777587890625,-0.50146484375,-0.0902099609375,-11.65771484375,0.79345703125,-27.587890625
37475.554366666,-0.777587890625,-0.203369140625,-0.0902099609375,-11.65771484375,0.79345703125,-27.587890625
37475.554690625,-0.777587890625,-0.203369140625,0.031494140625,-11.65771484375,0.79345703125,-27.587890625
37475.554852333,-0.777587890625,-0.203369140625,0.031494140625,-23.5595703125,0.79345703125,-27.587890625
37475.597468875,-0.677978515625,-0.203369140625,0.031494140625,-23.5595703125,0.79345703125,-27.587890625
37475.628585541,-0.677978515625,-0.223876953125,0.031494140625,-23.5595703125,0.79345703125,-27.587890625
37475.628861541,-0.677978515625,-0.223876953125,0.073486328125,-23.5595703125,0.79345703125,-27.587890625
37475.630218541,-0.677978515625,-0.223876953125,0.073486328125,-12.939453125,0.79345703125,-27.587890625
37475.630413125,-0.610595703125,-0.223876953125,0.073486328125,-12.939453125,0.79345703125,-27.587890625
37475.659203208,-0.610595703125,-0.223876953125,0.12353515625,-12.939453125,0.79345703125,-27.587890625
37475.659279708,-0.610595703125,-0.223876953125,0.12353515625,50.78125,0.79345703125,-27.587890625
37475.65935025,-0.610595703125,-0.223876953125,0.12353515625,50.78125,38.26904296875,-27.587890625
37475.676003958,-0.6883544921875,-0.223876953125,0.12353515625,50.78125,38.26904296875,-27.587890625
37475.676088875,-0.6883544921875,-0.4400634765625,0.12353515625,50.78125,38.26904296875,-27.587890625
37475.676160875,-0.6883544921875,-0.4400634765625,0.147216796875,50.78125,38.26904296875,-27.587890625
37475.748750041,-0.6883544921875,-0.4400634765625,0.147216796875,50.78125,24.658203125,-27.587890625
37475.759513416,-0.67041015625,-0.4400634765625,0.147216796875,50.78125,24.658203125,-27.587890625
37475.759611,-0.67041015625,-0.4891357421875,0.147216796875,50.78125,24.658203125,-27.587890625
37475.777485416,-0.67041015625,-0.4891357421875,0.180419921875,50.78125,24.658203125,-27.587890625
37475.777666083,-0.67041015625,-0.4891357421875,0.180419921875,50.78125,14.2822265625,-27.587890625
37475.778382208,-0.67041015625,-0.4891357421875,0.180419921875,50.78125,14.2822265625,3.173828125
37475.792956333,-0.6033935546875,-0.4891357421875,0.180419921875,50.78125,14.2822265625,3.173828125
37475.793049416,-0.6033935546875,-0.412841796875,0.180419921875,50.78125,14.2822265625,3.173828125
37475.793229458,-0.6033935546875,-0.412841796875,0.0819091796875,50.78125,14.2822265625,3.173828125
37475.852749541,-0.6033935546875,-0.412841796875,0.0819091796875,50.78125,14.2822265625,40.46630859375
37475.853328833,-0.4971923828125,-0.412841796875,0.0819091796875,50.78125,14.2822265625,40.46630859375
37475.881813458,-0.4971923828125,-0.3924560546875,0.0819091796875,50.78125,14.2822265625,40.46630859375
37475.897882083,-0.4971923828125,-0.3924560546875,0.1099853515625,50.78125,14.2822265625,40.46630859375
37475.898062375,-0.4971923828125,-0.3924560546875,0.1099853515625,50.78125,-30.8837890625,40.46630859375
37475.912870875,-0.4971923828125,-0.3924560546875,0.1099853515625,50.78125,-30.8837890625,54.8095703125
37475.913060875,-0.623046875,-0.3924560546875,0.1099853515625,50.78125,-30.8837890625,54.8095703125
37475.927737,-0.623046875,-0.3924560546875,0.1099853515625,-0.1220703125,-30.8837890625,54.8095703125
37475.927904375,-0.623046875,-0.3924560546875,0.1099853515625,-0.1220703125,-24.96337890625,54.8095703125
37475.95771225,-0.616943359375,-0.3924560546875,0.1099853515625,-0.1220703125,-24.96337890625,54.8095703125
37475.957911625,-0.616943359375,-0.4346923828125,0.1099853515625,-0.1220703125,-24.96337890625,54.8095703125
37475.958581125,-0.616943359375,-0.4346923828125,0.11474609375,-0.1220703125,-24.96337890625,54.8095703125
37475.958751333,-0.616943359375,-0.4346923828125,0.11474609375,-0.1220703125,-24.96337890625,19.1650390625
37475.975802666,-0.844482421875,-0.4346923828125,0.11474609375,-0.1220703125,-24.96337890625,19.1650390625
37475.97587775,-0.844482421875,-0.4290771484375,0.11474609375,-0.1220703125,-24.96337890625,19.1650390625
37475.9759505,-0.844482421875,-0.4290771484375,-0.029296875,-0.1220703125,-24.96337890625,19.1650390625
37475.992694375,-0.844482421875,-0.4290771484375,-0.029296875,-0.1220703125,-25.87890625,19.1650390625
37475.992774,-0.844482421875,-0.4290771484375,-0.029296875,-0.1220703125,-25.87890625,4.69970703125
37476.063074208,-0.88720703125,-0.4290771484375,-0.029296875,-0.1220703125,-25.87890625,4.69970703125
37476.063249291,-0.88720703125,-0.206787109375,-0.029296875,-0.1220703125,-25.87890625,4.69970703125
37476.063662,-0.88720703125,-0.206787109375,0.0364990234375,-0.1220703125,-25.87890625,4.69970703125
37476.077948208,-0.88720703125,-0.206787109375,0.0364990234375,-0.1220703125,-7.38525390625,4.69970703125
37476.078178875,-0.88720703125,-0.206787109375,0.0364990234375,-0.1220703125,-7.38525390625,-4.94384765625
37476.093657,-0.980224609375,-0.206787109375,0.0364990234375,-0.1220703125,-7.38525390625,-4.94384765625
37476.093769125,-0.980224609375,-0.1851806640625,0.0364990234375,-0.1220703125,-7.38525390625,-4.94384765625
37476.093862125,-0.980224609375,-0.1851806640625,0.0791015625,-0.1220703125,-7.38525390625,-4.94384765625
37476.121883625,-0.980224609375,-0.1851806640625,0.0791015625,-0.1220703125,20.8740234375,-4.94384765625
37476.123362416,-0.980224609375,-0.1851806640625,0.0791015625,-0.1220703125,20.8740234375,-8.7890625
37476.123547458,-0.9251708984375,-0.1851806640625,0.0791015625,-0.1220703125,20.8740234375,-8.7890625
37476.143192416,-0.9251708984375,-0.222900390625,0.0791015625,-0.1220703125,20.8740234375,-8.7890625
37476.143290375,-0.9251708984375,-0.222900390625,0.0791015625,-0.1220703125,26.3671875,-8.7890625
37476.1433905,-0.9251708984375,-0.222900390625,0.0791015625,-0.1220703125,26.3671875,-29.78515625
37476.168118666,-1.0792236328125,-0.222900390625,0.0791015625,-0.1220703125,26.3671875,-29.78515625
37476.168299833,-1.0792236328125,-0.1815185546875,0.0791015625,-0.1220703125,26.3671875,-29.78515625
37476.1688725,-1.0792236328125,-0.1815185546875,0.1756591796875,-0.1220703125,26.3671875,-29.78515625
37476.169058291,-1.0792236328125,-0.1815185546875,0.1756591796875,-26.123046875,26.3671875,-29.78515625
37476.182909666,-1.057373046875,-0.1815185546875,0.1756591796875,-26.123046875,26.3671875,-29.78515625
37476.183108666,-1.057373046875,-0.10400390625,0.1756591796875,-26.123046875,26.3671875,-29.78515625
37476.184006333,-1.057373046875,-0.10400390625,0.179443359375,-26.123046875,26.3671875,-29.78515625
37476.197950666,-1.057373046875,-0.10400390625,0.179443359375,-26.123046875,22.64404296875,-29.78515625
37476.198146125,-1.057373046875,-0.10400390625,0.179443359375,-26.123046875,22.64404296875,-24.5361328125
37476.226785166,-1.2535400390625,-0.10400390625,0.179443359375,-26.123046875,22.64404296875,-24.5361328125
37476.242831541,-1.2535400390625,-0.1104736328125,0.179443359375,-26.123046875,22.64404296875,-24.5361328125
37476.2430725,-1.2535400390625,-0.1104736328125,0.113525390625,-26.123046875,22.64404296875,-24.5361328125
37476.244045375,-1.2535400390625,-0.1104736328125,0.113525390625,-26.123046875,16.11328125,-24.5361328125
37476.260024458,-1.02001953125,-0.1104736328125,0.113525390625,-26.123046875,16.11328125,-24.5361328125
37476.260119958,-1.02001953125,-0.142578125,0.113525390625,-26.123046875,16.11328125,-24.5361328125
37476.260207791,-1.02001953125,-0.142578125,0.24658203125,-26.123046875,16.11328125,-24.5361328125
37476.276426958,-1.02001953125,-0.142578125,0.24658203125,-26.123046875,16.11328125,-25.81787109375
37476.349164375,-1.034912109375,-0.142578125,0.24658203125,-26.123046875,16.11328125,-25.81787109375
37476.355902666,-1.034912109375,-0.1795654296875,0.24658203125,-26.123046875,16.11328125,-25.81787109375
37476.356079083,-1.034912109375,-0.1795654296875,0.170166015625,-26.123046875,16.11328125,-25.81787109375
37476.35618625,-1.034912109375,-0.1795654296875,0.170166015625,-26.123046875,-0.30517578125,-25.81787109375
37476.363041208,-1.177001953125,-0.1795654296875,0.170166015625,-26.123046875,-0.30517578125,-25.81787109375
37476.363413583,-1.177001953125,-0.2181396484375,0.170166015625,-26.123046875,-0.30517578125,-25.81787109375
37476.363529083,-1.177001953125,-0.2181396484375,0.093994140625,-26.123046875,-0.30517578125,-25.81787109375
37476.377758041,-1.177001953125,-0.2181396484375,0.093994140625,-26.123046875,-0.54931640625,-25.81787109375
37476.377947041,-1.177001953125,-0.2181396484375,0.093994140625,-26.123046875,-0.54931640625,-45.22705078125
37476.407604625,-1.3140869140625,-0.2181396484375,0.093994140625,-26.123046875,-0.54931640625,-45.22705078125
37476.407825666,-1.3140869140625,-0.06787109375,0.093994140625,-26.123046875,-0.54931640625,-45.22705078125
37476.408582958,-1.3140869140625,-0.06787109375,0.2220458984375,-26.123046875,-0.54931640625,-45.22705078125
37476.408776625,-1.3140869140625,-0.06787109375,0.2220458984375,-11.474609375,-0.54931640625,-45.22705078125
37476.426489375,-1.431884765625,-0.06787109375,0.2220458984375,-11.474609375,-0.54931640625,-45.22705078125
37476.42666375,-1.431884765625,-0.1224365234375,0.2220458984375,-11.474609375,-0.54931640625,-45.22705078125
37476.42675,-1.431884765625,-0.1224365234375,0.185546875,-11.474609375,-0.54931640625,-45.22705078125
37476.443403375,-1.431884765625,-0.1224365234375,0.185546875,-11.474609375,8.544921875,-45.22705078125
37476.443503541,-1.431884765625,-0.1224365234375,0.185546875,-11.474609375,8.544921875,-27.77099609375
37476.475478875,-1.41015625,-0.1224365234375,0.185546875,-11.474609375,8.544921875,-27.77099609375
37476.4755495,-1.41015625,-0.1448974609375,0.185546875,-11.474609375,8.544921875,-27.77099609375
37476.475610541,-1.41015625,-0.1448974609375,0.1954345703125,-11.474609375,8.544921875,-27.77099609375
37476.475670291,-1.41015625,-0.1448974609375,0.1954345703125,-8.30078125,8.544921875,-27.77099609375
37476.482690625,-1.3426513671875,-0.1448974609375,0.1954345703125,-8.30078125,8.544921875,-27.77099609375
37476.4980505,-1.3426513671875,-0.0821533203125,0.1954345703125,-8.30078125,8.544921875,-27.77099609375
37476.498185166,-1.3426513671875,-0.0821533203125,0.2867431640625,-8.30078125,8.544921875,-27.77099609375
37476.499309041,-1.3426513671875,-0.0821533203125,0.2867431640625,-8.30078125,13.5498046875,-27.77099609375
37476.499438666,-1.3426513671875,-0.0821533203125,0.2867431640625,-8.30078125,13.5498046875,-1.0986328125
37476.512904333,-1.2398681640625,-0.0821533203125,0.2867431640625,-8.30078125,13.5498046875,-1.0986328125
37476.513124416,-1.2398681640625,-0.0682373046875,0.2867431640625,-8.30078125,13.5498046875,-1.0986328125
37476.513204916,-1.2398681640625,-0.0682373046875,0.337646484375,-8.30078125,13.5498046875,-1.0986328125
37476.527753166,-1.2398681640625,-0.0682373046875,0.337646484375,-8.30078125,11.41357421875,-1.0986328125
37476.527887125,-1.2398681640625,-0.0682373046875,0.337646484375,-8.30078125,11.41357421875,3.2958984375
37476.588301875,-1.11669921875,-0.0682373046875,0.337646484375,-8.30078125,11.41357421875,3.2958984375
37476.588573666,-1.11669921875,-0.137451171875,0.337646484375,-8.30078125,11.41357421875,3.2958984375
37476.588708125,-1.11669921875,-0.137451171875,0.272705078125,-8.30078125,11.41357421875,3.2958984375
37476.588881416,-1.11669921875,-0.137451171875,0.272705078125,-8.30078125,6.591796875,3.2958984375
37476.648043166,-1.082763671875,-0.137451171875,0.272705078125,-8.30078125,6.591796875,3.2958984375
37476.648341583,-1.082763671875,-0.1546630859375,0.272705078125,-8.30078125,6.591796875,3.2958984375
37476.648500708,-1.082763671875,-0.1546630859375,0.263916015625,-8.30078125,6.591796875,3.2958984375
NEW_REP,,,,,,
37476.676861041,-1.082763671875,-0.1546630859375,0.263916015625,-8.30078125,2.13623046875,3.2958984375
37476.677685666,-1.082763671875,-0.1546630859375,0.263916015625,-8.30078125,2.13623046875,5.4931640625
37476.706746208,-1.1011962890625,-0.1546630859375,0.263916015625,-8.30078125,2.13623046875,5.4931640625
37476.708566,-1.1011962890625,-0.1116943359375,0.263916015625,-8.30078125,2.13623046875,5.4931640625
37476.708765666,-1.1011962890625,-0.1116943359375,0.243408203125,-8.30078125,2.13623046875,5.4931640625
37476.708867916,-1.156494140625,-0.1116943359375,0.243408203125,-8.30078125,2.13623046875,5.4931640625
37476.725789875,-1.156494140625,-0.1116943359375,0.2427978515625,-8.30078125,2.13623046875,5.4931640625
37476.725871583,-1.156494140625,-0.1116943359375,0.2427978515625,0.244140625,2.13623046875,5.4931640625
37476.725943625,-1.156494140625,-0.1116943359375,0.2427978515625,0.244140625,-12.20703125,5.4931640625
37476.742793875,-1.154296875,-0.1116943359375,0.2427978515625,0.244140625,-12.20703125,5.4931640625
37476.742875083,-1.154296875,-0.115234375,0.2427978515625,0.244140625,-12.20703125,5.4931640625
37476.742945166,-1.154296875,-0.115234375,0.240478515625,0.244140625,-12.20703125,5.4931640625
37476.752939083,-1.154296875,-0.115234375,0.240478515625,0.244140625,-14.0380859375,5.4931640625
37476.758784333,-1.154296875,-0.115234375,0.240478515625,0.244140625,-14.0380859375,34.912109375
37476.782824791,-1.2227783203125,-0.115234375,0.240478515625,0.244140625,-14.0380859375,34.912109375
37476.782975583,-1.2227783203125,-0.180908203125,0.240478515625,0.244140625,-14.0380859375,34.912109375
37476.783562208,-1.2227783203125,-0.180908203125,0.197998046875,0.244140625,-14.0380859375,34.912109375
37476.783707958,-1.2227783203125,-0.180908203125,0.197998046875,0.244140625,-16.78466796875,34.912109375
37476.797855416,-1.2032470703125,-0.180908203125,0.197998046875,0.244140625,-16.78466796875,34.912109375
37476.798020875,-1.2032470703125,-0.21923828125,0.197998046875,0.244140625,-16.78466796875,34.912109375
37476.813396916,-1.2032470703125,-0.21923828125,0.2003173828125,0.244140625,-16.78466796875,34.912109375
37476.813569666,-1.2032470703125,-0.21923828125,0.2003173828125,0.244140625,-16.357421875,34.912109375
37476.815727375,-1.2032470703125,-0.21923828125,0.2003173828125,0.244140625,-16.357421875,41.748046875
37476.82964925,-1.202880859375,-0.21923828125,0.2003173828125,0.244140625,-16.357421875,41.748046875
37476.829837041,-1.202880859375,-0.2296142578125,0.2003173828125,0.244140625,-16.357421875,41.748046875
37476.829907833,-1.202880859375,-0.2296142578125,0.188232421875,0.244140625,-16.357421875,41.748046875
37476.842549083,-1.202880859375,-0.2296142578125,0.188232421875,0.244140625,-17.08984375,41.748046875
37476.842718708,-1.202880859375,-0.2296142578125,0.188232421875,0.244140625,-17.08984375,43.212890625
37476.859126958,-1.1837158203125,-0.2296142578125,0.188232421875,0.244140625,-17.08984375,43.212890625
37476.859210208,-1.1837158203125,-0.2550048828125,0.188232421875,0.244140625,-17.08984375,43.212890625
37476.859281708,-1.1837158203125,-0.2550048828125,0.111572265625,0.244140625,-17.08984375,43.212890625
37476.875721625,-1.1837158203125,-0.2550048828125,0.111572265625,0.244140625,-16.6015625,43.212890625
37476.875799625,-1.1837158203125,-0.2550048828125,0.111572265625,0.244140625,-16.6015625,41.56494140625
37476.892489708,-1.1324462890625,-0.2550048828125,0.111572265625,0.244140625,-16.6015625,41.56494140625
37476.892564375,-1.1324462890625,-0.266357421875,0.111572265625,0.244140625,-16.6015625,41.56494140625
37476.892632875,-1.1324462890625,-0.266357421875,0.1104736328125,0.244140625,-16.6015625,41.56494140625
37476.977944625,-1.1324462890625,-0.266357421875,0.1104736328125,0.244140625,-13.73291015625,41.56494140625
37476.978589958,-1.1324462890625,-0.266357421875,0.1104736328125,0.244140625,-13.73291015625,41.07666015625
37476.978819375,-1.004638671875,-0.266357421875,0.1104736328125,0.244140625,-13.73291015625,41.07666015625
37476.979258375,-1.004638671875,-0.266357421875,0.1727294921875,0.244140625,-13.73291015625,41.07666015625
37477.009637708,-1.004638671875,-0.266357421875,0.1727294921875,0.244140625,-11.90185546875,41.07666015625
37477.009720041,-1.004638671875,-0.266357421875,0.1727294921875,0.244140625,-11.90185546875,36.92626953125
37477.009792166,-0.8599853515625,-0.266357421875,0.1727294921875,0.244140625,-11.90185546875,36.92626953125
37477.009861125,-0.8599853515625,-0.28857421875,0.1727294921875,0.244140625,-11.90185546875,36.92626953125
37477.009929208,-0.8599853515625,-0.28857421875,0.131103515625,0.244140625,-11.90185546875,36.92626953125
37477.026259375,-0.8599853515625,-0.28857421875,0.131103515625,0.244140625,-5.2490234375,36.92626953125
37477.0263335,-0.8599853515625,-0.28857421875,0.131103515625,0.244140625,-5.2490234375,22.705078125
37477.042840583,-0.88232421875,-0.28857421875,0.131103515625,0.244140625,-5.2490234375,22.705078125
37477.042919583,-0.88232421875,-0.304931640625,0.131103515625,0.244140625,-5.2490234375,22.705078125
37477.042989791,-0.88232421875,-0.304931640625,0.1142578125,0.244140625,-5.2490234375,22.705078125
37477.052932458,-0.88232421875,-0.304931640625,0.1142578125,0.244140625,-5.859375,22.705078125
37477.059464083,-0.88232421875,-0.304931640625,0.1142578125,0.244140625,-5.859375,18.98193359375
37477.081965541,-0.8934326171875,-0.304931640625,0.1142578125,0.244140625,-5.859375,18.98193359375
37477.083329291,-0.8934326171875,-0.31689453125,0.1142578125,0.244140625,-5.859375,18.98193359375
37477.083509458,-0.8934326171875,-0.31689453125,0.097412109375,0.244140625,-5.859375,18.98193359375
37477.127634208,-0.8934326171875,-0.31689453125,0.097412109375,0.244140625,-4.08935546875,18.98193359375
37477.127853166,-0.8934326171875,-0.31689453125,0.097412109375,0.244140625,-4.08935546875,14.7705078125
37477.159515583,-0.86279296875,-0.31689453125,0.097412109375,0.244140625,-4.08935546875,14.7705078125
37477.159597166,-0.86279296875,-0.30908203125,0.097412109375,0.244140625,-4.08935546875,14.7705078125
37477.15966725,-0.86279296875,-0.30908203125,0.097412109375,0.244140625,-1.220703125,14.7705078125
37477.159735041,-0.86279296875,-0.30908203125,0.097412109375,0.244140625,-1.220703125,11.77978515625
37477.176362708,-0.8692626953125,-0.30908203125,0.097412109375,0.244140625,-1.220703125,11.77978515625
37477.176438458,-0.8692626953125,-0.39453125,0.097412109375,0.244140625,-1.220703125,11.77978515625
37477.24916925,-0.8692626953125,-0.39453125,0.1368408203125,0.244140625,-1.220703125,11.77978515625
37477.2549355,-0.8692626953125,-0.39453125,0.1368408203125,4.5166015625,-1.220703125,11.77978515625
37477.255036625,-0.9591064453125,-0.39453125,0.1368408203125,4.5166015625,-1.220703125,11.77978515625
37477.25518075,-0.9591064453125,-0.3582763671875,0.1368408203125,4.5166015625,-1.220703125,11.77978515625
37477.263379291,-0.9591064453125,-0.3582763671875,0.1368408203125,4.5166015625,-3.662109375,11.77978515625
37477.263734666,-0.9591064453125,-0.3582763671875,0.1368408203125,4.5166015625,-3.662109375,3.47900390625
37477.285874666,-0.88916015625,-0.3582763671875,0.1368408203125,4.5166015625,-3.662109375,3.47900390625
37477.28624225,-0.88916015625,-0.39013671875,0.1368408203125,4.5166015625,-3.662109375,3.47900390625
37477.2868155,-0.88916015625,-0.39013671875,0.0958251953125,4.5166015625,-3.662109375,3.47900390625
37477.323006958,-0.88916015625,-0.39013671875,0.0958251953125,4.5166015625,-0.67138671875,3.47900390625
37477.323237791,-0.88916015625,-0.39013671875,0.0958251953125,4.5166015625,-0.67138671875,-12.451171875
37477.323479,-0.8150634765625,-0.39013671875,0.0958251953125,4.5166015625,-0.67138671875,-12.451171875
37477.341411458,-0.8150634765625,-0.39013671875,0.1439208984375,4.5166015625,-0.67138671875,-12.451171875
37477.341455875,-0.8150634765625,-0.39013671875,0.1439208984375,-9.1552734375,-0.67138671875,-12.451171875
37477.341489875,-0.8150634765625,-0.39013671875,0.1439208984375,-9.1552734375,1.3427734375,-12.451171875
37477.3677435,-0.95751953125,-0.39013671875,0.1439208984375,-9.1552734375,1.3427734375,-12.451171875
37477.367863208,-0.95751953125,-0.5205078125,0.1439208984375,-9.1552734375,1.3427734375,-12.451171875
37477.3746345,-0.95751953125,-0.5205078125,0.0711669921875,-9.1552734375,1.3427734375,-12.451171875
37477.374673208,-0.95751953125,-0.5205078125,0.0711669921875,-21.42333984375,1.3427734375,-12.451171875
37477.397598708,-0.91259765625,-0.5205078125,0.0711669921875,-21.42333984375,1.3427734375,-12.451171875
37477.397690208,-0.91259765625,-0.19189453125,0.0711669921875,-21.42333984375,1.3427734375,-12.451171875
37477.3983505,-0.91259765625,-0.19189453125,0.1722412109375,-21.42333984375,1.3427734375,-12.451171875
37477.398421916,-0.91259765625,-0.19189453125,0.1722412109375,-21.42333984375,7.080078125,-12.451171875
37477.426741333,-0.775390625,-0.19189453125,0.1722412109375,-21.42333984375,7.080078125,-12.451171875
37477.4285805,-0.775390625,-0.2198486328125,0.1722412109375,-21.42333984375,7.080078125,-12.451171875
37477.43069425,-0.775390625,-0.2198486328125,0.2110595703125,-21.42333984375,7.080078125,-12.451171875
37477.430767208,-0.775390625,-0.2198486328125,0.2110595703125,-21.42333984375,8.056640625,-12.451171875
37477.458871416,-0.85888671875,-0.2198486328125,0.2110595703125,-21.42333984375,8.056640625,-12.451171875
37477.458977666,-0.85888671875,-0.262451171875,0.2110595703125,-21.42333984375,8.056640625,-12.451171875
37477.459035291,-0.85888671875,-0.262451171875,0.081787109375,-21.42333984375,8.056640625,-12.451171875
37477.459111,-0.85888671875,-0.262451171875,0.081787109375,-21.42333984375,7.9345703125,-12.451171875
37477.532609833,-0.9322509765625,-0.262451171875,0.081787109375,-21.42333984375,7.9345703125,-12.451171875
37477.532709375,-0.9322509765625,-0.3443603515625,0.081787109375,-21.42333984375,7.9345703125,-12.451171875
37477.5628195,-0.9322509765625,-0.3443603515625,0.0819091796875,-21.42333984375,7.9345703125,-12.451171875
37477.562967875,-0.9322509765625,-0.3443603515625,0.0819091796875,-21.42333984375,14.16015625,-12.451171875
37477.563691166,-0.853759765625,-0.3443603515625,0.0819091796875,-21.42333984375,14.16015625,-12.451171875
37477.563836625,-0.853759765625,-0.2335205078125,0.0819091796875,-21.42333984375,14.16015625,-12.451171875
37477.577552416,-0.853759765625,-0.2335205078125,0.0819091796875,-5.859375,14.16015625,-12.451171875
37477.57770025,-0.853759765625,-0.2335205078125,0.0819091796875,-5.859375,24.35302734375,-12.451171875
37477.577786708,-0.853759765625,-0.2335205078125,0.0819091796875,-5.859375,24.35302734375,-41.80908203125
37477.594571416,-0.7294921875,-0.2335205078125,0.0819091796875,-5.859375,24.35302734375,-41.80908203125
37477.594679416,-0.7294921875,-0.1435546875,0.0819091796875,-5.859375,24.35302734375,-41.80908203125
37477.60844275,-0.7294921875,-0.1435546875,0.2828369140625,-5.859375,24.35302734375,-41.80908203125
37477.60861475,-0.7294921875,-0.1435546875,0.2828369140625,-5.859375,24.59716796875,-41.80908203125
37477.608712083,-0.7294921875,-0.1435546875,0.2828369140625,-5.859375,24.59716796875,-25.146484375
37477.666872916,-0.7711181640625,-0.1435546875,0.2828369140625,-5.859375,24.59716796875,-25.146484375
37477.68302025,-0.7711181640625,-0.2095947265625,0.2828369140625,-5.859375,24.59716796875,-25.146484375
37477.686680291,-0.7711181640625,-0.2095947265625,0.2943115234375,-5.859375,24.59716796875,-25.146484375
37477.686835166,-0.7711181640625,-0.2095947265625,0.2943115234375,-5.859375,17.08984375,-25.146484375
37477.686909041,-0.83154296875,-0.2095947265625,0.2943115234375,-5.859375,17.08984375,-25.146484375
37477.69769725,-0.83154296875,-0.2095947265625,0.2822265625,-5.859375,17.08984375,-25.146484375
37477.709330041,-0.83154296875,-0.2095947265625,0.2822265625,1.708984375,17.08984375,-25.146484375
37477.712638291,-0.83154296875,-0.2095947265625,0.2822265625,1.708984375,4.82177734375,-25.146484375
37477.72893425,-0.8349609375,-0.2095947265625,0.2822265625,1.708984375,4.82177734375,-25.146484375
37477.7292815,-0.8349609375,-0.2757568359375,0.2822265625,1.708984375,4.82177734375,-25.146484375
37477.729533041,-0.8349609375,-0.2757568359375,0.2235107421875,1.708984375,4.82177734375,-25.146484375
37477.744218458,-0.8349609375,-0.2757568359375,0.2235107421875,1.708984375,-2.685546875,-25.146484375
37477.7444015,-0.8349609375,-0.2757568359375,0.2235107421875,1.708984375,-2.685546875,-6.16455078125
37477.759469208,-0.8328857421875,-0.2757568359375,0.2235107421875,1.708984375,-2.685546875,-6.16455078125
37477.759557875,-0.8328857421875,-0.1556396484375,0.2235107421875,1.708984375,-2.685546875,-6.16455078125
37477.759632166,-0.8328857421875,-0.1556396484375,0.23046875,1.708984375,-2.685546875,-6.16455078125
37477.775931083,-0.8328857421875,-0.1556396484375,0.23046875,1.708984375,-4.08935546875,-6.16455078125
37477.776005041,-0.8328857421875,-0.1556396484375,0.23046875,1.708984375,-4.08935546875,1.40380859375
37477.863038958,-0.78759765625,-0.1556396484375,0.23046875,1.708984375,-4.08935546875,1.40380859375
37477.864076,-0.78759765625,-0.261474609375,0.23046875,1.708984375,-4.08935546875,1.40380859375
37477.864399833,-0.78759765625,-0.261474609375,0.1939697265625,1.708984375,-4.08935546875,1.40380859375
37477.892626833,-0.78759765625,-0.261474609375,0.1939697265625,35.09521484375,-4.08935546875,1.40380859375
37477.922869041,-0.726806640625,-0.261474609375,0.1939697265625,35.09521484375,-4.08935546875,1.40380859375
37477.923034875,-0.726806640625,-0.247314453125,0.1939697265625,35.09521484375,-4.08935546875,1.40380859375
37477.923523916,-0.726806640625,-0.247314453125,0.214111328125,35.09521484375,-4.08935546875,1.40380859375
37477.923695,-0.726806640625,-0.247314453125,0.214111328125,35.09521484375,-5.9814453125,1.40380859375
37477.952000583,-0.646728515625,-0.247314453125,0.214111328125,35.09521484375,-5.9814453125,1.40380859375
37477.959480708,-0.646728515625,-0.2806396484375,0.214111328125,35.09521484375,-5.9814453125,1.40380859375
37477.959558458,-0.646728515625,-0.2806396484375,0.1998291015625,35.09521484375,-5.9814453125,1.40380859375
37477.981922041,-0.646728515625,-0.2806396484375,0.1998291015625,35.09521484375,-14.83154296875,1.40380859375
37477.983226083,-0.646728515625,-0.2806396484375,0.1998291015625,35.09521484375,-14.83154296875,48.4619140625
37477.997825333,-0.826416015625,-0.2806396484375,0.1998291015625,35.09521484375,-14.83154296875,48.4619140625
37478.013571416,-0.826416015625,-0.33447265625,0.1998291015625,35.09521484375,-14.83154296875,48.4619140625
37478.013744166,-0.826416015625,-0.33447265625,0.1998291015625,35.09521484375,-11.04736328125,48.4619140625
37478.0152175,-0.826416015625,-0.33447265625,0.1998291015625,35.09521484375,-11.04736328125,34.3017578125
37478.05784675,-0.8287353515625,-0.33447265625,0.1998291015625,35.09521484375,-11.04736328125,34.3017578125
37478.058055125,-0.8287353515625,-0.349365234375,0.1998291015625,35.09521484375,-11.04736328125,34.3017578125
37478.062583833,-0.8287353515625,-0.349365234375,0.1790771484375,35.09521484375,-11.04736328125,34.3017578125
37478.062680208,-0.9136962890625,-0.349365234375,0.1790771484375,35.09521484375,-11.04736328125,34.3017578125
37478.072644,-0.9136962890625,-0.349365234375,0.1590576171875,35.09521484375,-11.04736328125,34.3017578125
37478.076809333,-0.9136962890625,-0.349365234375,0.1590576171875,3.96728515625,-11.04736328125,34.3017578125
37478.164125041,-0.9136962890625,-0.349365234375,0.1590576171875,3.96728515625,-9.033203125,34.3017578125
37478.164896375,-0.9229736328125,-0.349365234375,0.1590576171875,3.96728515625,-9.033203125,34.3017578125
37478.165100416,-0.9229736328125,-0.3232421875,0.1590576171875,3.96728515625,-9.033203125,34.3017578125
37478.165391125,-0.9229736328125,-0.3232421875,0.12158203125,3.96728515625,-9.033203125,34.3017578125
37478.193120291,-0.9229736328125,-0.3232421875,0.12158203125,3.96728515625,-12.75634765625,34.3017578125
37478.193199333,-0.9229736328125,-0.3232421875,0.12158203125,3.96728515625,-12.75634765625,10.07080078125
37478.210279333,-1.0469970703125,-0.3232421875,0.12158203125,3.96728515625,-12.75634765625,10.07080078125
37478.210371875,-1.0469970703125,-0.272705078125,0.12158203125,3.96728515625,-12.75634765625,10.07080078125
37478.210455791,-1.0469970703125,-0.272705078125,0.1219482421875,3.96728515625,-12.75634765625,10.07080078125
37478.210538208,-1.0469970703125,-0.272705078125,0.1219482421875,4.33349609375,-12.75634765625,10.07080078125
37478.22645925,-0.8939208984375,-0.272705078125,0.1219482421875,4.33349609375,-12.75634765625,10.07080078125
37478.226548708,-0.8939208984375,-0.238037109375,0.1219482421875,4.33349609375,-12.75634765625,10.07080078125
37478.226638,-0.8939208984375,-0.238037109375,0.1307373046875,4.33349609375,-12.75634765625,10.07080078125
37478.243118625,-0.8939208984375,-0.238037109375,0.1307373046875,4.33349609375,3.35693359375,10.07080078125
37478.243211458,-0.8939208984375,-0.238037109375,0.1307373046875,4.33349609375,3.35693359375,-11.474609375
37478.253017166,-1.02001953125,-0.238037109375,0.1307373046875,4.33349609375,3.35693359375,-11.474609375
37478.253236625,-1.02001953125,-0.19921875,0.1307373046875,4.33349609375,3.35693359375,-11.474609375
37478.259649916,-1.02001953125,-0.19921875,0.10595703125,4.33349609375,3.35693359375,-11.474609375
37478.267920708,-1.02001953125,-0.19921875,0.10595703125,4.33349609375,3.90625,-11.474609375
37478.268121041,-1.02001953125,-0.19921875,0.10595703125,4.33349609375,3.90625,-13.18359375
37478.282951791,-0.9735107421875,-0.19921875,0.10595703125,4.33349609375,3.90625,-13.18359375
37478.283187083,-0.9735107421875,-0.134765625,0.10595703125,4.33349609375,3.90625,-13.18359375
37478.283312458,-0.9735107421875,-0.134765625,0.11669921875,4.33349609375,3.90625,-13.18359375
37478.298038375,-0.9735107421875,-0.134765625,0.11669921875,4.33349609375,9.21630859375,-13.18359375
37478.298220125,-0.9735107421875,-0.134765625,0.11669921875,4.33349609375,9.21630859375,-13.18359375
37478.326964333,-0.8214111328125,-0.134765625,0.11669921875,4.33349609375,9.21630859375,-13.18359375
37478.34316775,-0.8214111328125,-0.1683349609375,0.11669921875,4.33349609375,9.21630859375,-13.18359375
37478.343410416,-0.8214111328125,-0.1683349609375,0.1092529296875,4.33349609375,9.21630859375,-13.18359375
37478.343539708,-0.8214111328125,-0.1683349609375,0.1092529296875,-2.9296875,9.21630859375,-13.18359375
37478.343815458,-0.919677734375,-0.1683349609375,0.1092529296875,-2.9296875,9.21630859375,-13.18359375
37478.359967958,-0.919677734375,-0.1683349609375,0.1033935546875,-2.9296875,9.21630859375,-13.18359375
37478.360048583,-0.919677734375,-0.1683349609375,0.1033935546875,-12.20703125,9.21630859375,-13.18359375
37478.360121041,-0.919677734375,-0.1683349609375,0.1033935546875,-12.20703125,15.5029296875,-13.18359375
37478.376576041,-0.8612060546875,-0.1683349609375,0.1033935546875,-12.20703125,15.5029296875,-13.18359375
37478.376655666,-0.8612060546875,-0.1270751953125,0.1033935546875,-12.20703125,15.5029296875,-13.18359375
37478.376725666,-0.8612060546875,-0.1270751953125,0.174560546875,-12.20703125,15.5029296875,-13.18359375
37478.477834916,-0.8612060546875,-0.1270751953125,0.174560546875,-12.20703125,20.08056640625,-13.18359375
37478.479147583,-0.8612060546875,-0.1270751953125,0.174560546875,-12.20703125,20.08056640625,-14.7705078125
37478.479731125,-0.8138427734375,-0.1270751953125,0.174560546875,-12.20703125,20.08056640625,-14.7705078125
37478.480010375,-0.8138427734375,-0.1055908203125,0.174560546875,-12.20703125,20.08056640625,-14.7705078125
37478.509257458,-0.8138427734375,-0.1055908203125,0.174560546875,-12.20703125,13.61083984375,-14.7705078125
37478.509337875,-0.8138427734375,-0.1055908203125,0.174560546875,-12.20703125,13.61083984375,-17.88330078125
37478.526188625,-1.1513671875,-0.1055908203125,0.174560546875,-12.20703125,13.61083984375,-17.88330078125
37478.526267125,-1.1513671875,-0.1541748046875,0.174560546875,-12.20703125,13.61083984375,-17.88330078125
37478.526337166,-1.1513671875,-0.1541748046875,0.2127685546875,-12.20703125,13.61083984375,-17.88330078125
37478.526405666,-1.1513671875,-0.1541748046875,0.2127685546875,-12.3291015625,13.61083984375,-17.88330078125
37478.542252208,-1.1304931640625,-0.1541748046875,0.2127685546875,-12.3291015625,13.61083984375,-17.88330078125
37478.542329958,-1.1304931640625,-0.110107421875,0.2127685546875,-12.3291015625,13.61083984375,-17.88330078125
37478.542400708,-1.1304931640625,-0.110107421875,0.3092041015625,-12.3291015625,13.61083984375,-17.88330078125
37478.552961791,-1.1304931640625,-0.110107421875,0.3092041015625,-12.3291015625,-2.25830078125,-17.88330078125
37478.558822,-1.1304931640625,-0.110107421875,0.3092041015625,-12.3291015625,-2.25830078125,-26.2451171875
37478.598279375,-1.2657470703125,-0.110107421875,0.3092041015625,-12.3291015625,-2.25830078125,-26.2451171875
37478.598457416,-1.2657470703125,-0.056640625,0.3092041015625,-12.3291015625,-2.25830078125,-26.2451171875
37478.59906575,-1.2657470703125,-0.056640625,0.2655029296875,-12.3291015625,-2.25830078125,-26.2451171875
37478.599237208,-1.2657470703125,-0.056640625,0.2655029296875,-17.39501953125,-2.25830078125,-26.2451171875
37478.613237708,-1.3402099609375,-0.056640625,0.2655029296875,-17.39501953125,-2.25830078125,-26.2451171875
37478.613329458,-1.3402099609375,-0.0968017578125,0.2655029296875,-17.39501953125,-2.25830078125,-26.2451171875
37478.628276958,-1.3402099609375,-0.0968017578125,0.2530517578125,-17.39501953125,-2.25830078125,-26.2451171875
37478.628481916,-1.3402099609375,-0.0968017578125,0.2530517578125,-17.39501953125,-0.8544921875,-26.2451171875
37478.629135708,-1.3402099609375,-0.0968017578125,0.2530517578125,-17.39501953125,-0.8544921875,-21.484375
37478.658838041,-1.3291015625,-0.0968017578125,0.2530517578125,-17.39501953125,-0.8544921875,-21.484375
37478.658918333,-1.3291015625,-0.1190185546875,0.2530517578125,-17.39501953125,-0.8544921875,-21.484375
37478.658988208,-1.3291015625,-0.1190185546875,0.2513427734375,-17.39501953125,-0.8544921875,-21.484375
37478.659056208,-1.3291015625,-0.1190185546875,0.2513427734375,6.53076171875,-0.8544921875,-21.484375
37478.687606791,-1.33544921875,-0.1190185546875,0.2513427734375,6.53076171875,-0.8544921875,-21.484375
37478.689077125,-1.33544921875,-0.1640625,0.2513427734375,6.53076171875,-0.8544921875,-21.484375
37478.689277833,-1.33544921875,-0.1640625,0.255126953125,6.53076171875,-0.8544921875,-21.484375
37478.689384291,-1.33544921875,-0.1640625,0.255126953125,5.43212890625,-0.8544921875,-21.484375
37478.748673583,-1.2593994140625,-0.1640625,0.255126953125,5.43212890625,-0.8544921875,-21.484375
37478.749039791,-1.2593994140625,-0.1358642578125,0.255126953125,5.43212890625,-0.8544921875,-21.484375
37478.749159791,-1.2593994140625,-0.1358642578125,0.2806396484375,5.43212890625,-0.8544921875,-21.484375
37478.763961916,-1.2593994140625,-0.1358642578125,0.2806396484375,5.43212890625,10.25390625,-21.484375
37478.764095208,-1.2593994140625,-0.1358642578125,0.2806396484375,5.43212890625,10.25390625,2.685546875
37478.806951166,-1.0692138671875,-0.1358642578125,0.2806396484375,5.43212890625,10.25390625,2.685546875
37478.808989666,-1.0692138671875,-0.1761474609375,0.2806396484375,5.43212890625,10.25390625,2.685546875
37478.809345,-1.0692138671875,-0.1761474609375,0.281005859375,5.43212890625,10.25390625,2.685546875
37478.826054375,-1.0692138671875,-0.1761474609375,0.281005859375,7.38525390625,10.25390625,2.685546875
37478.826138833,-1.0379638671875,-0.1761474609375,0.281005859375,7.38525390625,10.25390625,2.685546875
37478.826210041,-1.0379638671875,-0.1588134765625,0.281005859375,7.38525390625,10.25390625,2.685546875
37478.826278458,-1.0379638671875,-0.1588134765625,0.2867431640625,7.38525390625,10.25390625,2.685546875
37478.847473791,-1.0379638671875,-0.1588134765625,0.2867431640625,7.38525390625,3.2958984375,2.685546875
37478.847574958,-1.0379638671875,-0.1588134765625,0.2867431640625,7.38525390625,3.2958984375,6.16455078125
NEW_REP,,,,,,
37478.86704075,-0.9927978515625,-0.1588134765625,0.2867431640625,7.38525390625,3.2958984375,6.16455078125
37478.884093125,-0.9927978515625,-0.149658203125,0.2867431640625,7.38525390625,3.2958984375,6.16455078125
37478.884359916,-0.9927978515625,-0.149658203125,0.262451171875,7.38525390625,3.2958984375,6.16455078125
37478.884491666,-0.9927978515625,-0.149658203125,0.262451171875,7.38525390625,-2.01416015625,6.16455078125
37478.8846645,-0.9996337890625,-0.149658203125,0.262451171875,7.38525390625,-2.01416015625,6.16455078125
37478.897988708,-0.9996337890625,-0.149658203125,0.2774658203125,7.38525390625,-2.01416015625,6.16455078125
37478.898165583,-0.9996337890625,-0.149658203125,0.2774658203125,-6.4697265625,-2.01416015625,6.16455078125
37478.899151375,-0.9996337890625,-0.149658203125,0.2774658203125,-6.4697265625,-3.7841796875,6.16455078125
37478.9152585,-1.0147705078125,-0.149658203125,0.2774658203125,-6.4697265625,-3.7841796875,6.16455078125
37478.915478375,-1.0147705078125,-0.0806884765625,0.2774658203125,-6.4697265625,-3.7841796875,6.16455078125
37478.915605,-1.0147705078125,-0.0806884765625,0.2613525390625,-6.4697265625,-3.7841796875,6.16455078125
37478.928472458,-1.0147705078125,-0.0806884765625,0.2613525390625,-6.4697265625,-8.056640625,6.16455078125
37478.928648375,-1.0147705078125,-0.0806884765625,0.2613525390625,-6.4697265625,-8.056640625,6.16455078125
37478.95756325,-1.088623046875,-0.0806884765625,0.2613525390625,-6.4697265625,-8.056640625,6.16455078125
37478.957773625,-1.088623046875,-0.101806640625,0.2613525390625,-6.4697265625,-8.056640625,6.16455078125
37478.973304583,-1.088623046875,-0.101806640625,0.27490234375,-6.4697265625,-8.056640625,6.16455078125
37478.9735025,-1.088623046875,-0.101806640625,0.27490234375,3.90625,-8.056640625,6.16455078125
37478.974107375,-1.124267578125,-0.101806640625,0.27490234375,3.90625,-8.056640625,6.16455078125
37478.97431925,-1.124267578125,-0.126953125,0.27490234375,3.90625,-8.056640625,6.16455078125
37478.992834458,-1.124267578125,-0.126953125,0.27490234375,2.99072265625,-8.056640625,6.16455078125
37478.992915541,-1.124267578125,-0.126953125,0.27490234375,2.99072265625,-9.82666015625,6.16455078125
37478.992987291,-1.124267578125,-0.126953125,0.27490234375,2.99072265625,-9.82666015625,14.83154296875
37479.062760333,-1.1480712890625,-0.126953125,0.27490234375,2.99072265625,-9.82666015625,14.83154296875
37479.064452708,-1.1480712890625,-0.12841796875,0.27490234375,2.99072265625,-9.82666015625,14.83154296875
37479.064899625,-1.1480712890625,-0.12841796875,0.2880859375,2.99072265625,-9.82666015625,14.83154296875
37479.065113375,-1.1480712890625,-0.12841796875,0.2880859375,2.99072265625,-11.65771484375,14.83154296875
37479.092859416,-1.1717529296875,-0.12841796875,0.2880859375,2.99072265625,-11.65771484375,14.83154296875
37479.093034291,-1.1717529296875,-0.1771240234375,0.2880859375,2.99072265625,-11.65771484375,14.83154296875
37479.109760083,-1.1717529296875,-0.1771240234375,0.2445068359375,2.99072265625,-11.65771484375,14.83154296875
37479.109843333,-1.1717529296875,-0.1771240234375,0.2445068359375,9.27734375,-11.65771484375,14.83154296875
37479.109914458,-1.1488037109375,-0.1771240234375,0.2445068359375,9.27734375,-11.65771484375,14.83154296875
37479.12591525,-1.1488037109375,-0.177001953125,0.2445068359375,9.27734375,-11.65771484375,14.83154296875
37479.125998166,-1.1488037109375,-0.177001953125,0.2445068359375,4.0283203125,-11.65771484375,14.83154296875
37479.126070625,-1.1488037109375,-0.177001953125,0.2445068359375,4.0283203125,-15.625,14.83154296875
37479.126140458,-1.1488037109375,-0.177001953125,0.2445068359375,4.0283203125,-15.625,33.26416015625
37479.153317666,-1.1231689453125,-0.177001953125,0.2445068359375,4.0283203125,-15.625,33.26416015625
37479.159067583,-1.1231689453125,-0.1793212890625,0.2445068359375,4.0283203125,-15.625,33.26416015625
37479.159201375,-1.1231689453125,-0.1793212890625,0.192626953125,4.0283203125,-15.625,33.26416015625
37479.159274125,-1.1231689453125,-0.1793212890625,0.192626953125,6.28662109375,-15.625,33.26416015625
37479.183278,-1.0823974609375,-0.1793212890625,0.192626953125,6.28662109375,-15.625,33.26416015625
37479.1834375,-1.0823974609375,-0.201171875,0.192626953125,6.28662109375,-15.625,33.26416015625
37479.183980791,-1.0823974609375,-0.201171875,0.1707763671875,6.28662109375,-15.625,33.26416015625
37479.184118583,-1.0823974609375,-0.201171875,0.1707763671875,7.9345703125,-15.625,33.26416015625
37479.211929583,-1.0401611328125,-0.201171875,0.1707763671875,7.9345703125,-15.625,33.26416015625
37479.213488416,-1.0401611328125,-0.203125,0.1707763671875,7.9345703125,-15.625,33.26416015625
37479.213726291,-1.0401611328125,-0.203125,0.1871337890625,7.9345703125,-15.625,33.26416015625
37479.22802275,-1.0401611328125,-0.203125,0.1871337890625,7.9345703125,-15.31982421875,33.26416015625
37479.232140416,-1.0401611328125,-0.203125,0.1871337890625,7.9345703125,-15.31982421875,37.65869140625
37479.2576365,-1.0289306640625,-0.203125,0.1871337890625,7.9345703125,-15.31982421875,37.65869140625
37479.261782833,-1.0289306640625,-0.22314453125,0.1871337890625,7.9345703125,-15.31982421875,37.65869140625
37479.277408916,-1.0289306640625,-0.22314453125,0.1470947265625,7.9345703125,-15.31982421875,37.65869140625
37479.277510666,-1.0289306640625,-0.22314453125,0.1470947265625,-2.5634765625,-15.31982421875,37.65869140625
37479.277599291,-0.986572265625,-0.22314453125,0.1470947265625,-2.5634765625,-15.31982421875,37.65869140625
37479.277684083,-0.986572265625,-0.188720703125,0.1470947265625,-2.5634765625,-15.31982421875,37.65869140625
37479.287950541,-0.986572265625,-0.188720703125,0.1470947265625,7.8125,-15.31982421875,37.65869140625
37479.293123208,-0.986572265625,-0.188720703125,0.1470947265625,7.8125,-17.4560546875,37.65869140625
37479.36415675,-0.986572265625,-0.188720703125,0.1470947265625,7.8125,-17.4560546875,35.21728515625
37479.364880041,-0.94873046875,-0.188720703125,0.1470947265625,7.8125,-17.4560546875,35.21728515625
37479.365169583,-0.94873046875,-0.2315673828125,0.1470947265625,7.8125,-17.4560546875,35.21728515625
37479.365370583,-0.94873046875,-0.2315673828125,0.13916015625,7.8125,-17.4560546875,35.21728515625
37479.37799325,-0.94873046875,-0.2315673828125,0.13916015625,7.8125,-19.287109375,35.21728515625
37479.37817625,-0.94873046875,-0.2315673828125,0.13916015625,7.8125,-19.287109375,34.3017578125
37479.407523375,-0.8720703125,-0.2315673828125,0.13916015625,7.8125,-19.287109375,34.3017578125
37479.40937475,-0.8720703125,-0.317138671875,0.13916015625,7.8125,-19.287109375,34.3017578125
37479.409587541,-0.8720703125,-0.317138671875,0.095458984375,7.8125,-19.287109375,34.3017578125
37479.422670125,-0.8720703125,-0.317138671875,0.095458984375,2.50244140625,-19.287109375,34.3017578125
37479.443423041,-0.8912353515625,-0.317138671875,0.095458984375,2.50244140625,-19.287109375,34.3017578125
37479.443524958,-0.8912353515625,-0.348388671875,0.095458984375,2.50244140625,-19.287109375,34.3017578125
37479.443611125,-0.8912353515625,-0.348388671875,0.0950927734375,2.50244140625,-19.287109375,34.3017578125
37479.453103291,-0.927001953125,-0.348388671875,0.0950927734375,2.50244140625,-19.287109375,34.3017578125
37479.453379875,-0.927001953125,-0.3885498046875,0.0950927734375,2.50244140625,-19.287109375,34.3017578125
37479.4601025,-0.927001953125,-0.3885498046875,0.0574951171875,2.50244140625,-19.287109375,34.3017578125
37479.468090291,-0.927001953125,-0.3885498046875,0.0574951171875,2.50244140625,-15.80810546875,34.3017578125
37479.468274625,-0.927001953125,-0.3885498046875,0.0574951171875,2.50244140625,-15.80810546875,16.357421875
37479.483034,-0.869873046875,-0.3885498046875,0.0574951171875,2.50244140625,-15.80810546875,16.357421875
37479.483213541,-0.869873046875,-0.410400390625,0.0574951171875,2.50244140625,-15.80810546875,16.357421875
37479.483717875,-0.869873046875,-0.410400390625,0.0521240234375,2.50244140625,-15.80810546875,16.357421875
37479.498073125,-0.869873046875,-0.410400390625,0.0521240234375,2.50244140625,-10.009765625,16.357421875
37479.498272916,-0.869873046875,-0.410400390625,0.0521240234375,2.50244140625,-10.009765625,14.404296875
37479.528047625,-0.9423828125,-0.410400390625,0.0521240234375,2.50244140625,-10.009765625,14.404296875
37479.528293333,-0.9423828125,-0.3741455078125,0.0521240234375,2.50244140625,-10.009765625,14.404296875
37479.528743041,-0.9423828125,-0.3741455078125,0.08740234375,2.50244140625,-10.009765625,14.404296875
37479.528951583,-0.9423828125,-0.3741455078125,0.08740234375,-18.310546875,-10.009765625,14.404296875
37479.543163416,-0.917724609375,-0.3741455078125,0.08740234375,-18.310546875,-10.009765625,14.404296875
37479.543257166,-0.917724609375,-0.36474609375,0.08740234375,-18.310546875,-10.009765625,14.404296875
37479.54418325,-0.917724609375,-0.36474609375,0.1220703125,-18.310546875,-10.009765625,14.404296875
37479.560118625,-0.917724609375,-0.36474609375,0.1220703125,-18.310546875,-3.5400390625,14.404296875
37479.560205625,-0.917724609375,-0.36474609375,0.1220703125,-18.310546875,-3.5400390625,11.90185546875
37479.587792458,-0.9068603515625,-0.36474609375,0.1220703125,-18.310546875,-3.5400390625,11.90185546875
37479.587989583,-0.9068603515625,-0.4189453125,0.1220703125,-18.310546875,-3.5400390625,11.90185546875
37479.589110833,-0.9068603515625,-0.4189453125,0.074462890625,-18.310546875,-3.5400390625,11.90185546875
37479.589286666,-0.9068603515625,-0.4189453125,0.074462890625,-18.310546875,-2.197265625,11.90185546875
37479.648353166,-0.864990234375,-0.4189453125,0.074462890625,-18.310546875,-2.197265625,11.90185546875
37479.648674541,-0.864990234375,-0.4434814453125,0.074462890625,-18.310546875,-2.197265625,11.90185546875
37479.653896083,-0.864990234375,-0.4434814453125,0.0797119140625,-18.310546875,-2.197265625,11.90185546875
37479.663854458,-0.864990234375,-0.4434814453125,0.0797119140625,-18.310546875,1.220703125,11.90185546875
37479.664120583,-0.864990234375,-0.4434814453125,0.0797119140625,-18.310546875,1.220703125,7.26318359375
37479.692829416,-0.85986328125,-0.4434814453125,0.0797119140625,-18.310546875,1.220703125,7.26318359375
37479.693034291,-0.85986328125,-0.4051513671875,0.0797119140625,-18.310546875,1.220703125,7.26318359375
37479.752651416,-0.85986328125,-0.4051513671875,0.151123046875,-18.310546875,1.220703125,7.26318359375
37479.752996833,-0.85986328125,-0.4051513671875,0.151123046875,-4.8828125,1.220703125,7.26318359375
37479.797455041,-0.87890625,-0.4051513671875,0.151123046875,-4.8828125,1.220703125,7.26318359375
37479.802275583,-0.87890625,-0.4288330078125,0.151123046875,-4.8828125,1.220703125,7.26318359375
37479.949289208,-0.87890625,-0.4288330078125,0.151123046875,-4.8828125,9.3994140625,7.26318359375
37479.9642955,-0.87890625,-0.4288330078125,0.151123046875,-4.8828125,9.3994140625,-6.591796875
37479.964545416,-0.87890625,-0.4688720703125,0.151123046875,-4.8828125,9.3994140625,-6.591796875
37479.964668833,-0.87890625,-0.4688720703125,0.1522216796875,-4.8828125,9.3994140625,-6.591796875
37479.992690208,-0.87890625,-0.4688720703125,0.1522216796875,-4.8828125,16.7236328125,-6.591796875
37479.9927555,-0.767333984375,-0.4688720703125,0.1522216796875,-4.8828125,16.7236328125,-6.591796875
37479.993657958,-0.767333984375,-0.2984619140625,0.1522216796875,-4.8828125,16.7236328125,-6.591796875
37479.993701333,-0.767333984375,-0.2984619140625,0.281494140625,-4.8828125,16.7236328125,-6.591796875
37480.00787,-0.767333984375,-0.2984619140625,0.281494140625,-4.8828125,21.97265625,-6.591796875
