Timestamp,Accel_X,Accel_Y,Accel_Z,Gyro_X,Gyro_Y,Gyro_Z
36844.378963625,-0.8868408203125,0.0,0.0,0.0,0.0,0.0
36844.379269458,-0.8680419921875,0.0,0.0,0.0,0.0,0.0
36844.406775166,-0.867431640625,0.0,0.0,0.0,0.0,0.0
36844.406870625,-0.867431640625,-0.500732421875,0.0,0.0,0.0,0.0
36844.407995208,-0.857177734375,-0.500732421875,0.0,0.0,0.0,0.0
36844.408172166,-0.857177734375,-0.439453125,0.0,0.0,0.0,0.0
36844.438191791,-0.8563232421875,-0.439453125,0.0,0.0,0.0,0.0
36844.43831475,-0.8563232421875,-0.4151611328125,0.0,0.0,0.0,0.0
36844.438806458,-0.8563232421875,-0.4151611328125,0.1561279296875,0.0,0.0,0.0
36844.456645416,-0.83154296875,-0.4151611328125,0.1561279296875,0.0,0.0,0.0
36844.45672975,-0.83154296875,-0.39599609375,0.1561279296875,0.0,0.0,0.0
36844.456799791,-0.83154296875,-0.39599609375,0.174560546875,0.0,0.0,0.0
36844.498418541,-0.7969970703125,-0.39599609375,0.174560546875,0.0,0.0,0.0
36844.499540291,-0.7969970703125,-0.4796142578125,0.174560546875,0.0,0.0,0.0
36844.499750166,-0.7969970703125,-0.4796142578125,0.23828125,0.0,0.0,0.0
36844.523261333,-0.748291015625,-0.4796142578125,0.23828125,0.0,0.0,0.0
36844.523343708,-0.748291015625,-0.4754638671875,0.23828125,0.0,0.0,0.0
36844.523412291,-0.748291015625,-0.4754638671875,0.2615966796875,0.0,0.0,0.0
36844.545005166,-0.7303466796875,-0.4754638671875,0.2615966796875,0.0,0.0,0.0
36844.545234708,-0.7303466796875,-0.4852294921875,0.2615966796875,0.0,0.0,0.0
36844.545327291,-0.7303466796875,-0.4852294921875,0.2513427734375,0.0,0.0,0.0
36844.558722791,-0.7467041015625,-0.4852294921875,0.2513427734375,0.0,0.0,0.0
36844.558948583,-0.7467041015625,-0.53125,0.2513427734375,0.0,0.0,0.0
36844.559038875,-0.7467041015625,-0.53125,0.186279296875,0.0,0.0,0.0
36844.573097083,-0.7467041015625,-0.53125,0.186279296875,0.0,5.4931640625,0.0
36844.5731715,-0.7467041015625,-0.53125,0.186279296875,0.0,5.4931640625,11.71875
36844.589670666,-0.74755859375,-0.53125,0.186279296875,0.0,5.4931640625,11.71875
36844.589746583,-0.74755859375,-0.5552978515625,0.186279296875,0.0,5.4931640625,11.71875
36844.606679916,-0.74755859375,-0.5552978515625,0.1881103515625,0.0,5.4931640625,11.71875
36844.606755583,-0.74755859375,-0.5552978515625,0.1881103515625,0.0,-0.42724609375,11.71875
36844.606824791,-0.74755859375,-0.5552978515625,0.1881103515625,0.0,-0.42724609375,10.43701171875
36844.632443875,-0.7723388671875,-0.5552978515625,0.1881103515625,0.0,-0.42724609375,10.43701171875
36844.632645041,-0.7723388671875,-0.57275390625,0.1881103515625,0.0,-0.42724609375,10.43701171875
36844.639570166,-0.7723388671875,-0.57275390625,0.1934814453125,0.0,-0.42724609375,10.43701171875
36844.639653291,-0.7723388671875,-0.57275390625,0.1934814453125,12.26806640625,-0.42724609375,10.43701171875
36844.649608,-0.7933349609375,-0.57275390625,0.1934814453125,12.26806640625,-0.42724609375,10.43701171875
36844.656388708,-0.7933349609375,-0.581298828125,0.1934814453125,12.26806640625,-0.42724609375,10.43701171875
36844.656504416,-0.7933349609375,-0.581298828125,0.1517333984375,12.26806640625,-0.42724609375,10.43701171875
36844.663144208,-0.7933349609375,-0.581298828125,0.1517333984375,12.26806640625,-14.09912109375,10.43701171875
36844.663325708,-0.7933349609375,-0.581298828125,0.1517333984375,12.26806640625,-14.09912109375,-2.25830078125
36844.693669083,-0.8443603515625,-0.581298828125,0.1517333984375,12.26806640625,-14.09912109375,-2.25830078125
36844.697745625,-0.8443603515625,-0.57861328125,0.1517333984375,12.26806640625,-14.09912109375,-2.25830078125
36844.697891958,-0.8443603515625,-0.57861328125,0.1282958984375,12.26806640625,-14.09912109375,-2.25830078125
36844.697973375,-0.8443603515625,-0.57861328125,0.1282958984375,12.26806640625,-14.892578125,-2.25830078125
36844.707870166,-0.861572265625,-0.57861328125,0.1282958984375,12.26806640625,-14.892578125,-2.25830078125
36844.723038416,-0.861572265625,-0.56298828125,0.1282958984375,12.26806640625,-14.892578125,-2.25830078125
36844.723257208,-0.861572265625,-0.56298828125,0.146484375,12.26806640625,-14.892578125,-2.25830078125
36844.723510708,-0.861572265625,-0.56298828125,0.146484375,12.26806640625,-13.24462890625,-2.25830078125
36844.723694583,-0.861572265625,-0.56298828125,0.146484375,12.26806640625,-13.24462890625,-4.5166015625
36844.768183208,-0.875732421875,-0.56298828125,0.146484375,12.26806640625,-13.24462890625,-4.5166015625
36844.768406041,-0.875732421875,-0.5621337890625,0.146484375,12.26806640625,-13.24462890625,-4.5166015625
36844.768761041,-0.875732421875,-0.5621337890625,0.13330078125,12.26806640625,-13.24462890625,-4.5166015625
36844.770024541,-0.875732421875,-0.5621337890625,0.13330078125,-1.0986328125,-13.24462890625,-4.5166015625
36844.798221041,-0.8836669921875,-0.5621337890625,0.13330078125,-1.0986328125,-13.24462890625,-4.5166015625
36844.79838775,-0.8836669921875,-0.5572509765625,0.13330078125,-1.0986328125,-13.24462890625,-4.5166015625
36844.799019166,-0.8836669921875,-0.5572509765625,0.1263427734375,-1.0986328125,-13.24462890625,-4.5166015625
36844.799157791,-0.8836669921875,-0.5572509765625,0.1263427734375,-1.0986328125,-7.2021484375,-4.5166015625
36844.842993083,-0.874267578125,-0.5572509765625,0.1263427734375,-1.0986328125,-7.2021484375,-4.5166015625
36844.843188666,-0.874267578125,-0.528076171875,0.1263427734375,-1.0986328125,-7.2021484375,-4.5166015625
36844.84418475,-0.874267578125,-0.528076171875,0.1541748046875,-1.0986328125,-7.2021484375,-4.5166015625
36844.858419583,-0.874267578125,-0.528076171875,0.1541748046875,3.11279296875,-7.2021484375,-4.5166015625
36844.873681375,-0.8648681640625,-0.528076171875,0.1541748046875,3.11279296875,-7.2021484375,-4.5166015625
36844.873778125,-0.8648681640625,-0.5372314453125,0.1541748046875,3.11279296875,-7.2021484375,-4.5166015625
36844.890228083,-0.8648681640625,-0.5372314453125,0.14794921875,3.11279296875,-7.2021484375,-4.5166015625
36844.89032525,-0.8648681640625,-0.5372314453125,0.14794921875,3.11279296875,-2.8076171875,-4.5166015625
36844.890410916,-0.8648681640625,-0.5372314453125,0.14794921875,3.11279296875,-2.8076171875,-1.03759765625
36844.918033083,-0.85595703125,-0.5372314453125,0.14794921875,3.11279296875,-2.8076171875,-1.03759765625
36844.924056583,-0.85595703125,-0.526611328125,0.14794921875,3.11279296875,-2.8076171875,-1.03759765625
36844.924160583,-0.85595703125,-0.526611328125,0.157470703125,3.11279296875,-2.8076171875,-1.03759765625
36844.924248,-0.85595703125,-0.526611328125,0.157470703125,-2.9296875,-2.8076171875,-1.03759765625
36844.933579125,-0.86083984375,-0.526611328125,0.157470703125,-2.9296875,-2.8076171875,-1.03759765625
36844.933745375,-0.86083984375,-0.5340576171875,0.157470703125,-2.9296875,-2.8076171875,-1.03759765625
36844.940195041,-0.86083984375,-0.5340576171875,0.1583251953125,-2.9296875,-2.8076171875,-1.03759765625
36844.978147916,-0.86083984375,-0.5340576171875,0.1583251953125,-2.9296875,-1.953125,-1.03759765625
36844.978400125,-0.86083984375,-0.5340576171875,0.1583251953125,-2.9296875,-1.953125,-0.30517578125
36844.983389166,-0.8533935546875,-0.5340576171875,0.1583251953125,-2.9296875,-1.953125,-0.30517578125
36844.983487541,-0.8533935546875,-0.536376953125,0.1583251953125,-2.9296875,-1.953125,-0.30517578125
36844.993369916,-0.8533935546875,-0.536376953125,0.1583251953125,-2.9296875,-1.40380859375,-0.30517578125
36844.993651708,-0.8533935546875,-0.536376953125,0.1583251953125,-2.9296875,-1.40380859375,1.15966796875
36845.022903375,-0.860595703125,-0.536376953125,0.1583251953125,-2.9296875,-1.40380859375,1.15966796875
36845.023103666,-0.860595703125,-0.54296875,0.1583251953125,-2.9296875,-1.40380859375,1.15966796875
36845.02380525,-0.860595703125,-0.54296875,0.1641845703125,-2.9296875,-1.40380859375,1.15966796875
36845.039975166,-0.860595703125,-0.54296875,0.1641845703125,-2.9296875,-0.91552734375,1.15966796875
36845.040055291,-0.860595703125,-0.54296875,0.1641845703125,-2.9296875,-0.91552734375,2.8076171875
36845.056981166,-0.83935546875,-0.54296875,0.1641845703125,-2.9296875,-0.91552734375,2.8076171875
36845.057057916,-0.83935546875,-0.51611328125,0.1641845703125,-2.9296875,-0.91552734375,2.8076171875
36845.067929583,-0.83935546875,-0.51611328125,0.1634521484375,-2.9296875,-0.91552734375,2.8076171875
36845.07349775,-0.83935546875,-0.51611328125,0.1634521484375,-2.9296875,-1.0986328125,2.8076171875
36845.073575458,-0.83935546875,-0.51611328125,0.1634521484375,-2.9296875,-1.0986328125,2.99072265625
36845.0829515,-0.8331298828125,-0.51611328125,0.1634521484375,-2.9296875,-1.0986328125,2.99072265625
36845.083139416,-0.8331298828125,-0.5009765625,0.1634521484375,-2.9296875,-1.0986328125,2.99072265625
36845.089803916,-0.8331298828125,-0.5009765625,0.1649169921875,-2.9296875,-1.0986328125,2.99072265625
36845.098589958,-0.8331298828125,-0.5009765625,0.1649169921875,-2.9296875,-1.5869140625,2.99072265625
36845.098784833,-0.8331298828125,-0.5009765625,0.1649169921875,-2.9296875,-1.5869140625,3.173828125
36845.113481208,-0.8326416015625,-0.5009765625,0.1649169921875,-2.9296875,-1.5869140625,3.173828125
36845.113660458,-0.8326416015625,-0.5089111328125,0.1649169921875,-2.9296875,-1.5869140625,3.173828125
36845.114308791,-0.8326416015625,-0.5089111328125,0.1632080078125,-2.9296875,-1.5869140625,3.173828125
36845.128327291,-0.8326416015625,-0.5089111328125,0.1632080078125,-2.9296875,-2.685546875,3.173828125
36845.128477291,-0.8326416015625,-0.5089111328125,0.1632080078125,-2.9296875,-2.685546875,3.7841796875
36845.142807541,-0.8406982421875,-0.5089111328125,0.1632080078125,-2.9296875,-2.685546875,3.7841796875
36845.142956708,-0.8406982421875,-0.52734375,0.1632080078125,-2.9296875,-2.685546875,3.7841796875
36845.143888125,-0.8406982421875,-0.52734375,0.156982421875,-2.9296875,-2.685546875,3.7841796875
36845.158025166,-0.8406982421875,-0.52734375,0.156982421875,-2.9296875,-3.173828125,3.7841796875
36845.158179,-0.8406982421875,-0.52734375,0.156982421875,-2.9296875,-3.173828125,3.84521484375
36845.173410208,-0.8447265625,-0.52734375,0.156982421875,-2.9296875,-3.173828125,3.84521484375
36845.173485125,-0.8447265625,-0.5274658203125,0.156982421875,-2.9296875,-3.173828125,3.84521484375
36845.174210791,-0.8447265625,-0.5274658203125,0.157958984375,-2.9296875,-3.173828125,3.84521484375
36845.189983291,-0.8447265625,-0.5274658203125,0.157958984375,-2.9296875,-2.197265625,3.84521484375
36845.190064166,-0.8447265625,-0.5274658203125,0.157958984375,-2.9296875,-2.197265625,3.60107421875
36845.206866916,-0.8416748046875,-0.5274658203125,0.157958984375,-2.9296875,-2.197265625,3.60107421875
36845.206942458,-0.8416748046875,-0.5289306640625,0.157958984375,-2.9296875,-2.197265625,3.60107421875
36845.207011416,-0.8416748046875,-0.5289306640625,0.1563720703125,-2.9296875,-2.197265625,3.60107421875
36845.223420125,-0.8416748046875,-0.5289306640625,0.1563720703125,-2.9296875,-1.5869140625,3.60107421875
36845.223498083,-0.8416748046875,-0.5289306640625,0.1563720703125,-2.9296875,-1.5869140625,5.18798828125
36845.23296625,-0.83837890625,-0.5289306640625,0.1563720703125,-2.9296875,-1.5869140625,5.18798828125
36845.233175583,-0.83837890625,-0.552001953125,0.1563720703125,-2.9296875,-1.5869140625,5.18798828125
36845.239947083,-0.83837890625,-0.552001953125,0.1558837890625,-2.9296875,-1.5869140625,5.18798828125
36845.277078,-0.83837890625,-0.552001953125,0.1558837890625,-2.9296875,-1.03759765625,5.18798828125
36845.281914041,-0.83837890625,-0.552001953125,0.1558837890625,-2.9296875,-1.03759765625,5.4931640625
36845.282009958,-0.832763671875,-0.552001953125,0.1558837890625,-2.9296875,-1.03759765625,5.4931640625
36845.282096041,-0.832763671875,-0.562744140625,0.1558837890625,-2.9296875,-1.03759765625,5.4931640625
36845.296607708,-0.832763671875,-0.562744140625,0.1558837890625,-2.9296875,-0.79345703125,5.4931640625
36845.296702833,-0.832763671875,-0.562744140625,0.1558837890625,-2.9296875,-0.79345703125,4.39453125
36845.323343083,-0.83154296875,-0.562744140625,0.1558837890625,-2.9296875,-0.79345703125,4.39453125
36845.323423958,-0.83154296875,-0.55615234375,0.1558837890625,-2.9296875,-0.79345703125,4.39453125
36845.323493083,-0.83154296875,-0.55615234375,0.171875,-2.9296875,-0.79345703125,4.39453125
36845.32369675,-0.83154296875,-0.55615234375,0.171875,-2.9296875,-0.6103515625,4.39453125
36845.323801583,-0.83154296875,-0.55615234375,0.171875,-2.9296875,-0.6103515625,1.220703125
36845.349684791,-0.8353271484375,-0.55615234375,0.171875,-2.9296875,-0.6103515625,1.220703125
36845.349790875,-0.8353271484375,-0.548583984375,0.171875,-2.9296875,-0.6103515625,1.220703125
36845.349853625,-0.8353271484375,-0.548583984375,0.18408203125,-2.9296875,-0.6103515625,1.220703125
36845.355740958,-0.8353271484375,-0.548583984375,0.18408203125,-2.9296875,-0.9765625,1.220703125
36845.355788583,-0.8353271484375,-0.548583984375,0.18408203125,-2.9296875,-0.9765625,0.6103515625
36845.372398875,-0.843017578125,-0.548583984375,0.18408203125,-2.9296875,-0.9765625,0.6103515625
36845.372447708,-0.843017578125,-0.55859375,0.18408203125,-2.9296875,-0.9765625,0.6103515625
36845.372486916,-0.843017578125,-0.55859375,0.1695556640625,-2.9296875,-0.9765625,0.6103515625
36845.389732041,-0.843017578125,-0.55859375,0.1695556640625,-2.9296875,-1.77001953125,0.6103515625
36845.389794833,-0.843017578125,-0.55859375,0.1695556640625,-2.9296875,-1.77001953125,-0.6103515625
36845.397719291,-0.846923828125,-0.55859375,0.1695556640625,-2.9296875,-1.77001953125,-0.6103515625
36845.397872166,-0.846923828125,-0.5531005859375,0.1695556640625,-2.9296875,-1.77001953125,-0.6103515625
36845.398564875,-0.846923828125,-0.5531005859375,0.1885986328125,-2.9296875,-1.77001953125,-0.6103515625
36845.413322416,-0.846923828125,-0.5531005859375,0.1885986328125,-2.9296875,-4.0283203125,-0.6103515625
36845.413498958,-0.846923828125,-0.5531005859375,0.1885986328125,-2.9296875,-4.0283203125,-1.28173828125
36845.427763291,-0.867919921875,-0.5531005859375,0.1885986328125,-2.9296875,-4.0283203125,-1.28173828125
36845.427920208,-0.867919921875,-0.5511474609375,0.1885986328125,-2.9296875,-4.0283203125,-1.28173828125
36845.429047166,-0.867919921875,-0.5511474609375,0.1759033203125,-2.9296875,-4.0283203125,-1.28173828125
36845.443068,-0.867919921875,-0.5511474609375,0.1759033203125,-2.9296875,-7.14111328125,-1.28173828125
36845.443216541,-0.867919921875,-0.5511474609375,0.1759033203125,-2.9296875,-7.14111328125,-1.40380859375
36845.459256541,-0.8798828125,-0.5511474609375,0.1759033203125,-2.9296875,-7.14111328125,-1.40380859375
36845.459526416,-0.8798828125,-0.5567626953125,0.1759033203125,-2.9296875,-7.14111328125,-1.40380859375
36845.459633375,-0.8798828125,-0.5567626953125,0.154296875,-2.9296875,-7.14111328125,-1.40380859375
36845.473540791,-0.8798828125,-0.5567626953125,0.154296875,-2.9296875,-11.04736328125,-1.40380859375
36845.473705666,-0.8798828125,-0.5567626953125,0.154296875,-2.9296875,-11.04736328125,-1.03759765625
36845.4897535,-0.9056396484375,-0.5567626953125,0.154296875,-2.9296875,-11.04736328125,-1.03759765625
36845.489833208,-0.9056396484375,-0.5452880859375,0.154296875,-2.9296875,-11.04736328125,-1.03759765625
36845.490067833,-0.9056396484375,-0.5452880859375,0.16357421875,-2.9296875,-11.04736328125,-1.03759765625
36845.5318585,-0.9056396484375,-0.5452880859375,0.16357421875,-2.9296875,-13.3056640625,-1.03759765625
36845.534208708,-0.9056396484375,-0.5452880859375,0.16357421875,-2.9296875,-13.3056640625,0.1220703125
36845.534483916,-0.9569091796875,-0.5452880859375,0.16357421875,-2.9296875,-13.3056640625,0.1220703125
36845.534595458,-0.9569091796875,-0.569580078125,0.16357421875,-2.9296875,-13.3056640625,0.1220703125
NEW_REP,,,,,,
36845.56320325,-0.9569091796875,-0.569580078125,0.16357421875,-2.9296875,-16.4794921875,0.1220703125
36845.564840083,-0.9569091796875,-0.569580078125,0.16357421875,-2.9296875,-16.4794921875,3.41796875
36845.565035666,-0.995849609375,-0.569580078125,0.16357421875,-2.9296875,-16.4794921875,3.41796875
36845.56510825,-0.995849609375,-0.5902099609375,0.16357421875,-2.9296875,-16.4794921875,3.41796875
36845.578436291,-0.995849609375,-0.5902099609375,0.16357421875,-2.9296875,-19.34814453125,3.41796875
36845.578632791,-0.995849609375,-0.5902099609375,0.16357421875,-2.9296875,-19.34814453125,8.1787109375
36845.593747,-1.0032958984375,-0.5902099609375,0.16357421875,-2.9296875,-19.34814453125,8.1787109375
36845.59403875,-1.0032958984375,-0.6146240234375,0.16357421875,-2.9296875,-19.34814453125,8.1787109375
36845.5941475,-1.0032958984375,-0.6146240234375,0.1724853515625,-2.9296875,-19.34814453125,8.1787109375
36845.608191166,-1.0032958984375,-0.6146240234375,0.1724853515625,-2.9296875,-21.8505859375,8.1787109375
36845.60833825,-1.0032958984375,-0.6146240234375,0.1724853515625,-2.9296875,-21.8505859375,10.80322265625
36845.623455083,-1.020751953125,-0.6146240234375,0.1724853515625,-2.9296875,-21.8505859375,10.80322265625
36845.62359875,-1.020751953125,-0.6318359375,0.1724853515625,-2.9296875,-21.8505859375,10.80322265625
36845.653414625,-1.020751953125,-0.6318359375,0.185546875,-2.9296875,-21.8505859375,10.80322265625
36845.653580166,-1.020751953125,-0.6318359375,0.185546875,-2.9296875,-26.4892578125,10.80322265625
36845.673829541,-1.020751953125,-0.6318359375,0.185546875,-2.9296875,-26.4892578125,11.90185546875
36845.6739145,-1.0499267578125,-0.6318359375,0.185546875,-2.9296875,-26.4892578125,11.90185546875
36845.673990125,-1.0499267578125,-0.6318359375,0.1614990234375,-2.9296875,-26.4892578125,11.90185546875
36845.674061583,-1.0499267578125,-0.6318359375,0.1614990234375,10.80322265625,-26.4892578125,11.90185546875
36845.682784041,-1.03857421875,-0.6318359375,0.1614990234375,10.80322265625,-26.4892578125,11.90185546875
36845.682929083,-1.03857421875,-0.6884765625,0.1614990234375,10.80322265625,-26.4892578125,11.90185546875
36845.6906155,-1.03857421875,-0.6884765625,0.111083984375,10.80322265625,-26.4892578125,11.90185546875
36845.742088958,-1.03857421875,-0.6884765625,0.111083984375,10.80322265625,-45.8984375,11.90185546875
36845.743545625,-1.03857421875,-0.6884765625,0.111083984375,10.80322265625,-45.8984375,13.61083984375
36845.743723583,-1.0126953125,-0.6884765625,0.111083984375,10.80322265625,-45.8984375,13.61083984375
36845.757803166,-1.0126953125,-0.6884765625,0.0550537109375,10.80322265625,-45.8984375,13.61083984375
36845.758047583,-1.0126953125,-0.6884765625,0.0550537109375,-5.0048828125,-45.8984375,13.61083984375
36845.7581775,-1.0126953125,-0.6884765625,0.0550537109375,-5.0048828125,-49.86572265625,13.61083984375
36845.786983791,-1.0401611328125,-0.6884765625,0.0550537109375,-5.0048828125,-49.86572265625,13.61083984375
36845.7890025,-1.0401611328125,-0.699951171875,0.0550537109375,-5.0048828125,-49.86572265625,13.61083984375
36845.7892875,-1.0401611328125,-0.699951171875,0.0712890625,-5.0048828125,-49.86572265625,13.61083984375
36845.789442708,-1.0401611328125,-0.699951171875,0.0712890625,-4.0283203125,-49.86572265625,13.61083984375
36845.819520125,-1.0582275390625,-0.699951171875,0.0712890625,-4.0283203125,-49.86572265625,13.61083984375
36845.819829333,-1.0582275390625,-0.6539306640625,0.0712890625,-4.0283203125,-49.86572265625,13.61083984375
36845.819927541,-1.0582275390625,-0.6539306640625,0.0225830078125,-4.0283203125,-49.86572265625,13.61083984375
36845.833823416,-1.0582275390625,-0.6539306640625,0.0225830078125,-4.0283203125,-48.52294921875,13.61083984375
36845.834092666,-0.98681640625,-0.6539306640625,0.0225830078125,-4.0283203125,-48.52294921875,13.61083984375
36845.835696458,-0.98681640625,-0.608154296875,0.0225830078125,-4.0283203125,-48.52294921875,13.61083984375
36845.835981833,-0.98681640625,-0.608154296875,-0.017578125,-4.0283203125,-48.52294921875,13.61083984375
36845.850783625,-0.98681640625,-0.608154296875,-0.017578125,-4.0283203125,-42.96875,13.61083984375
36845.851035666,-0.98681640625,-0.608154296875,-0.017578125,-4.0283203125,-42.96875,-4.2724609375
36845.879809583,-0.9879150390625,-0.608154296875,-0.017578125,-4.0283203125,-42.96875,-4.2724609375
36845.880028583,-0.9879150390625,-0.6959228515625,-0.017578125,-4.0283203125,-42.96875,-4.2724609375
36845.880137916,-0.9879150390625,-0.6959228515625,-0.11572265625,-4.0283203125,-42.96875,-4.2724609375
36845.90817925,-0.9879150390625,-0.6959228515625,-0.11572265625,-45.22705078125,-42.96875,-4.2724609375
36845.908439833,-0.964111328125,-0.6959228515625,-0.11572265625,-45.22705078125,-42.96875,-4.2724609375
36845.908552458,-0.964111328125,-0.6121826171875,-0.11572265625,-45.22705078125,-42.96875,-4.2724609375
36845.908891458,-0.964111328125,-0.6121826171875,-0.13623046875,-45.22705078125,-42.96875,-4.2724609375
36845.92395825,-0.964111328125,-0.6121826171875,-0.13623046875,-45.22705078125,-29.84619140625,-4.2724609375
36845.92404525,-0.964111328125,-0.6121826171875,-0.13623046875,-45.22705078125,-29.84619140625,-22.76611328125
36845.953768041,-0.8443603515625,-0.6121826171875,-0.13623046875,-45.22705078125,-29.84619140625,-22.76611328125
36845.954036583,-0.8443603515625,-0.456298828125,-0.13623046875,-45.22705078125,-29.84619140625,-22.76611328125
36845.95416675,-0.8443603515625,-0.456298828125,-0.0718994140625,-45.22705078125,-29.84619140625,-22.76611328125
36845.954255625,-0.8443603515625,-0.456298828125,-0.0718994140625,-77.57568359375,-29.84619140625,-22.76611328125
36845.982898791,-0.9146728515625,-0.456298828125,-0.0718994140625,-77.57568359375,-29.84619140625,-22.76611328125
36845.983116541,-0.9146728515625,-0.5989990234375,-0.0718994140625,-77.57568359375,-29.84619140625,-22.76611328125
36845.983382708,-0.9146728515625,-0.5989990234375,-0.0789794921875,-77.57568359375,-29.84619140625,-22.76611328125
36846.043376625,-0.9146728515625,-0.5989990234375,-0.0789794921875,-77.57568359375,-15.869140625,-22.76611328125
36846.043535416,-0.9146728515625,-0.5989990234375,-0.0789794921875,-77.57568359375,-15.869140625,-53.40576171875
36846.072294458,-0.83056640625,-0.5989990234375,-0.0789794921875,-77.57568359375,-15.869140625,-53.40576171875
36846.08806025,-0.83056640625,-0.5989990234375,-0.1221923828125,-77.57568359375,-15.869140625,-53.40576171875
36846.088268416,-0.83056640625,-0.5989990234375,-0.1221923828125,-36.0107421875,-15.869140625,-53.40576171875
36846.102905,-0.6829833984375,-0.5989990234375,-0.1221923828125,-36.0107421875,-15.869140625,-53.40576171875
36846.103178416,-0.6829833984375,-0.2659912109375,-0.1221923828125,-36.0107421875,-15.869140625,-53.40576171875
36846.103315291,-0.6829833984375,-0.2659912109375,-0.1221923828125,-36.0107421875,4.7607421875,-53.40576171875
36846.147311666,-0.5362548828125,-0.2659912109375,-0.1221923828125,-36.0107421875,4.7607421875,-53.40576171875
36846.148683541,-0.5362548828125,-0.302490234375,-0.1221923828125,-36.0107421875,4.7607421875,-53.40576171875
36846.148864791,-0.5362548828125,-0.302490234375,-0.001953125,-36.0107421875,4.7607421875,-53.40576171875
36846.178296708,-0.5362548828125,-0.302490234375,-0.001953125,-36.0107421875,-10.68115234375,-53.40576171875
36846.178559583,-0.5362548828125,-0.302490234375,-0.001953125,-36.0107421875,-10.68115234375,-102.1728515625
36846.207612625,-0.2698974609375,-0.302490234375,-0.001953125,-36.0107421875,-10.68115234375,-102.1728515625
36846.207784125,-0.2698974609375,-0.187744140625,-0.001953125,-36.0107421875,-10.68115234375,-102.1728515625
36846.208501458,-0.2698974609375,-0.187744140625,-0.115234375,-36.0107421875,-10.68115234375,-102.1728515625
36846.208653291,-0.449951171875,-0.187744140625,-0.115234375,-36.0107421875,-10.68115234375,-102.1728515625
36846.252556833,-0.449951171875,-0.187744140625,0.125,-36.0107421875,-10.68115234375,-102.1728515625
36846.2527115,-0.449951171875,-0.187744140625,0.125,-104.67529296875,-10.68115234375,-102.1728515625
36846.253293083,-0.449951171875,-0.187744140625,0.125,-104.67529296875,-22.76611328125,-102.1728515625
36846.272604541,-0.4306640625,-0.187744140625,0.125,-104.67529296875,-22.76611328125,-102.1728515625
36846.272654375,-0.4306640625,-0.187744140625,0.0814208984375,-104.67529296875,-22.76611328125,-102.1728515625
36846.272695625,-0.4306640625,-0.187744140625,0.0814208984375,-28.3203125,-22.76611328125,-102.1728515625
36846.371860958,-0.4306640625,-0.187744140625,0.0814208984375,-28.3203125,-22.76611328125,42.3583984375
36846.373551208,-0.7098388671875,-0.187744140625,0.0814208984375,-28.3203125,-22.76611328125,42.3583984375
36846.3737545,-0.7098388671875,-0.4219970703125,0.0814208984375,-28.3203125,-22.76611328125,42.3583984375
36846.373890708,-0.7098388671875,-0.4219970703125,0.0814208984375,-8.60595703125,-22.76611328125,42.3583984375
36846.389263708,-0.7098388671875,-0.4219970703125,0.0814208984375,-8.60595703125,-22.76611328125,97.5341796875
36846.406250708,-0.7679443359375,-0.4219970703125,0.0814208984375,-8.60595703125,-22.76611328125,97.5341796875
36846.40631325,-0.7679443359375,-0.5047607421875,0.0814208984375,-8.60595703125,-22.76611328125,97.5341796875
36846.406368708,-0.7679443359375,-0.5047607421875,0.0079345703125,-8.60595703125,-22.76611328125,97.5341796875
36846.423037083,-0.7679443359375,-0.5047607421875,0.0079345703125,-8.60595703125,40.6494140625,97.5341796875
36846.423097833,-0.7679443359375,-0.5047607421875,0.0079345703125,-8.60595703125,40.6494140625,56.33544921875
36846.433002458,-0.6678466796875,-0.5047607421875,0.0079345703125,-8.60595703125,40.6494140625,56.33544921875
36846.43315525,-0.6678466796875,-0.3819580078125,0.0079345703125,-8.60595703125,40.6494140625,56.33544921875
36846.433209625,-0.6678466796875,-0.3819580078125,0.091796875,-8.60595703125,40.6494140625,56.33544921875
36846.447925,-0.6678466796875,-0.3819580078125,0.091796875,-8.60595703125,38.2080078125,56.33544921875
36846.477581541,-0.6678466796875,-0.3819580078125,0.091796875,-8.60595703125,38.2080078125,48.9501953125
36846.477711,-1.0347900390625,-0.3819580078125,0.091796875,-8.60595703125,38.2080078125,48.9501953125
36846.490017125,-1.0347900390625,-0.4993896484375,0.091796875,-8.60595703125,38.2080078125,48.9501953125
36846.490066166,-1.0347900390625,-0.4993896484375,0.1343994140625,-8.60595703125,38.2080078125,48.9501953125
36846.507504875,-1.0347900390625,-0.4993896484375,0.1343994140625,-8.60595703125,27.099609375,48.9501953125
36846.507607,-1.0347900390625,-0.4993896484375,0.1343994140625,-8.60595703125,27.099609375,44.0673828125
36846.508401083,-0.8319091796875,-0.4993896484375,0.1343994140625,-8.60595703125,27.099609375,44.0673828125
36846.508487791,-0.8319091796875,-0.5634765625,0.1343994140625,-8.60595703125,27.099609375,44.0673828125
36846.522576,-0.8319091796875,-0.5634765625,0.1343994140625,-8.60595703125,36.2548828125,44.0673828125
36846.540250708,-0.8319091796875,-0.5634765625,0.1343994140625,-8.60595703125,36.2548828125,21.8505859375
36846.555716458,-1.0731201171875,-0.5634765625,0.1343994140625,-8.60595703125,36.2548828125,21.8505859375
36846.555757208,-1.0731201171875,-0.46630859375,0.1343994140625,-8.60595703125,36.2548828125,21.8505859375
36846.555789458,-1.0731201171875,-0.46630859375,0.205810546875,-8.60595703125,36.2548828125,21.8505859375
36846.582047916,-1.0731201171875,-0.46630859375,0.205810546875,-8.60595703125,8.36181640625,21.8505859375
36846.588534791,-1.0731201171875,-0.46630859375,0.205810546875,-8.60595703125,8.36181640625,12.939453125
36846.642783708,-1.0452880859375,-0.46630859375,0.205810546875,-8.60595703125,8.36181640625,12.939453125
36846.642966416,-1.0452880859375,-0.5040283203125,0.205810546875,-8.60595703125,8.36181640625,12.939453125
36846.643063583,-1.0452880859375,-0.5040283203125,0.2156982421875,-8.60595703125,8.36181640625,12.939453125
36846.686771375,-1.05419921875,-0.5040283203125,0.2156982421875,-8.60595703125,8.36181640625,12.939453125
36846.688534375,-1.05419921875,-0.506103515625,0.2156982421875,-8.60595703125,8.36181640625,12.939453125
36846.688793,-1.05419921875,-0.506103515625,0.190185546875,-8.60595703125,8.36181640625,12.939453125
36846.688921791,-1.05419921875,-0.506103515625,0.190185546875,-8.60595703125,12.8173828125,12.939453125
36846.717816,-1.01806640625,-0.506103515625,0.190185546875,-8.60595703125,12.8173828125,12.939453125
36846.724237916,-1.01806640625,-0.571044921875,0.190185546875,-8.60595703125,12.8173828125,12.939453125
36846.724360375,-1.01806640625,-0.571044921875,0.1444091796875,-8.60595703125,12.8173828125,12.939453125
36846.724434333,-1.01806640625,-0.571044921875,0.1444091796875,-8.60595703125,7.99560546875,12.939453125
36846.733252125,-1.043212890625,-0.571044921875,0.1444091796875,-8.60595703125,7.99560546875,12.939453125
36846.733477791,-1.043212890625,-0.490966796875,0.1444091796875,-8.60595703125,7.99560546875,12.939453125
36846.73356475,-1.043212890625,-0.490966796875,0.22314453125,-8.60595703125,7.99560546875,12.939453125
36846.777994041,-1.043212890625,-0.490966796875,0.22314453125,-8.60595703125,10.19287109375,12.939453125
36846.77822775,-1.043212890625,-0.490966796875,0.22314453125,-8.60595703125,10.19287109375,-14.09912109375
36846.779129083,-0.9407958984375,-0.490966796875,0.22314453125,-8.60595703125,10.19287109375,-14.09912109375
36846.779360416,-0.9407958984375,-0.478759765625,0.22314453125,-8.60595703125,10.19287109375,-14.09912109375
36846.807086333,-0.9407958984375,-0.478759765625,0.22314453125,-8.60595703125,11.8408203125,-14.09912109375
36846.807168125,-0.9407958984375,-0.478759765625,0.22314453125,-8.60595703125,11.8408203125,-13.7939453125
36846.823961208,-1.0064697265625,-0.478759765625,0.22314453125,-8.60595703125,11.8408203125,-13.7939453125
36846.824191583,-1.0064697265625,-0.4766845703125,0.22314453125,-8.60595703125,11.8408203125,-13.7939453125
36846.824297208,-1.0064697265625,-0.4766845703125,0.1943359375,-8.60595703125,11.8408203125,-13.7939453125
36846.824440291,-1.0064697265625,-0.4766845703125,0.1943359375,0.48828125,11.8408203125,-13.7939453125
36846.840117916,-0.9736328125,-0.4766845703125,0.1943359375,0.48828125,11.8408203125,-13.7939453125
36846.840196625,-0.9736328125,-0.438720703125,0.1943359375,0.48828125,11.8408203125,-13.7939453125
36846.840267583,-0.9736328125,-0.438720703125,0.2099609375,0.48828125,11.8408203125,-13.7939453125
36846.868669666,-0.9736328125,-0.438720703125,0.2099609375,0.48828125,8.30078125,-13.7939453125
36846.868847583,-0.9736328125,-0.438720703125,0.2099609375,0.48828125,8.30078125,-15.7470703125
36846.95801625,-0.9114990234375,-0.438720703125,0.2099609375,0.48828125,8.30078125,-15.7470703125
36846.966217333,-0.9114990234375,-0.41943359375,0.2099609375,0.48828125,8.30078125,-15.7470703125
36846.966339625,-0.9114990234375,-0.41943359375,0.1715087890625,0.48828125,8.30078125,-15.7470703125
36846.966467416,-0.9114990234375,-0.41943359375,0.1715087890625,0.48828125,8.30078125,-16.2353515625
36846.974722041,-0.9114990234375,-0.3740234375,0.1715087890625,0.48828125,8.30078125,-16.2353515625
36846.99111525,-0.9114990234375,-0.3740234375,0.2275390625,0.48828125,8.30078125,-16.2353515625
36846.991219041,-0.9114990234375,-0.3740234375,0.2275390625,2.0751953125,8.30078125,-16.2353515625
36846.99129175,-0.9114990234375,-0.3740234375,0.2275390625,2.0751953125,8.30078125,-18.4326171875
36847.007722583,-0.9432373046875,-0.3740234375,0.2275390625,2.0751953125,8.30078125,-18.4326171875
36847.007803875,-0.9432373046875,-0.358154296875,0.2275390625,2.0751953125,8.30078125,-18.4326171875
36847.007873958,-0.9432373046875,-0.358154296875,0.24560546875,2.0751953125,8.30078125,-18.4326171875
36847.032410958,-0.9432373046875,-0.358154296875,0.24560546875,2.0751953125,18.73779296875,-18.4326171875
36847.034003333,-0.9432373046875,-0.358154296875,0.24560546875,2.0751953125,18.73779296875,-16.4794921875
36847.040018041,-0.949462890625,-0.358154296875,0.24560546875,2.0751953125,18.73779296875,-16.4794921875
36847.040095416,-0.949462890625,-0.3314208984375,0.24560546875,2.0751953125,18.73779296875,-16.4794921875
36847.048280958,-0.949462890625,-0.3314208984375,0.24560546875,2.0751953125,15.68603515625,-16.4794921875
36847.048449041,-0.949462890625,-0.3314208984375,0.24560546875,2.0751953125,15.68603515625,-15.869140625
36847.077385708,-0.96044921875,-0.3314208984375,0.24560546875,2.0751953125,15.68603515625,-15.869140625
36847.08135725,-0.96044921875,-0.4144287109375,0.24560546875,2.0751953125,15.68603515625,-15.869140625
36847.08143975,-0.96044921875,-0.4144287109375,0.224609375,2.0751953125,15.68603515625,-15.869140625
36847.081513125,-0.96044921875,-0.4144287109375,0.224609375,21.484375,15.68603515625,-15.869140625
36847.106405291,-1.0137939453125,-0.4144287109375,0.224609375,21.484375,15.68603515625,-15.869140625
36847.106555708,-1.0137939453125,-0.3892822265625,0.224609375,21.484375,15.68603515625,-15.869140625
36847.106617583,-1.0137939453125,-0.3892822265625,0.2525634765625,21.484375,15.68603515625,-15.869140625
36847.123180291,-1.0137939453125,-0.3892822265625,0.2525634765625,21.484375,10.1318359375,-15.869140625
36847.139960458,-1.0137939453125,-0.3892822265625,0.2525634765625,21.484375,10.1318359375,-18.00537109375
36847.140026791,-1.0389404296875,-0.3892822265625,0.2525634765625,21.484375,10.1318359375,-18.00537109375
36847.140087375,-1.0389404296875,-0.3892822265625,0.2669677734375,21.484375,10.1318359375,-18.00537109375
36847.14014825,-1.0389404296875,-0.3892822265625,0.2669677734375,-5.18798828125,10.1318359375,-18.00537109375
36847.156378333,-1.08544921875,-0.3892822265625,0.2669677734375,-5.18798828125,10.1318359375,-18.00537109375
36847.156448958,-1.08544921875,-0.332763671875,0.2669677734375,-5.18798828125,10.1318359375,-18.00537109375
36847.156510375,-1.08544921875,-0.332763671875,0.2930908203125,-5.18798828125,10.1318359375,-18.00537109375
36847.173118541,-1.08544921875,-0.332763671875,0.2930908203125,-5.18798828125,4.33349609375,-18.00537109375
36847.173201166,-1.08544921875,-0.332763671875,0.2930908203125,-5.18798828125,4.33349609375,-6.9580078125
36847.1828685,-1.19140625,-0.332763671875,0.2930908203125,-5.18798828125,4.33349609375,-6.9580078125
36847.18303025,-1.19140625,-0.4144287109375,0.2930908203125,-5.18798828125,4.33349609375,-6.9580078125
36847.190034083,-1.19140625,-0.4144287109375,0.3270263671875,-5.18798828125,4.33349609375,-6.9580078125
NEW_REP,,,,,,
36847.244796375,-1.19140625,-0.4144287109375,0.3270263671875,-5.18798828125,0.244140625,-6.9580078125
36847.244876125,-1.19140625,-0.4144287109375,0.3270263671875,-5.18798828125,0.244140625,0.42724609375
36847.2449465,-1.251708984375,-0.4144287109375,0.3270263671875,-5.18798828125,0.244140625,0.42724609375
36847.273824625,-1.251708984375,-0.4144287109375,0.2572021484375,-5.18798828125,0.244140625,0.42724609375
36847.273899083,-1.251708984375,-0.4144287109375,0.2572021484375,13.24462890625,0.244140625,0.42724609375
36847.274147625,-1.251708984375,-0.4144287109375,0.2572021484375,13.24462890625,-3.23486328125,0.42724609375
36847.290871625,-1.2010498046875,-0.4144287109375,0.2572021484375,13.24462890625,-3.23486328125,0.42724609375
36847.290944166,-1.2010498046875,-0.4552001953125,0.2572021484375,13.24462890625,-3.23486328125,0.42724609375
36847.291005458,-1.2010498046875,-0.4552001953125,0.2779541015625,13.24462890625,-3.23486328125,0.42724609375
36847.306906416,-1.2010498046875,-0.4552001953125,0.2779541015625,13.24462890625,-9.33837890625,0.42724609375
36847.306975541,-1.2010498046875,-0.4552001953125,0.2779541015625,13.24462890625,-9.33837890625,26.30615234375
36847.333427541,-1.142578125,-0.4552001953125,0.2779541015625,13.24462890625,-9.33837890625,26.30615234375
36847.333610541,-1.142578125,-0.50048828125,0.2779541015625,13.24462890625,-9.33837890625,26.30615234375
36847.340065416,-1.142578125,-0.50048828125,0.219482421875,13.24462890625,-9.33837890625,26.30615234375
36847.347899708,-1.142578125,-0.50048828125,0.219482421875,9.27734375,-9.33837890625,26.30615234375
36847.362941958,-1.1396484375,-0.50048828125,0.219482421875,9.27734375,-9.33837890625,26.30615234375
36847.363103166,-1.1396484375,-0.48779296875,0.219482421875,9.27734375,-9.33837890625,26.30615234375
36847.364081083,-1.1396484375,-0.48779296875,0.2381591796875,9.27734375,-9.33837890625,26.30615234375
36847.377686625,-1.1396484375,-0.48779296875,0.2381591796875,9.27734375,-9.33837890625,32.1044921875
36847.406968708,-1.2552490234375,-0.48779296875,0.2381591796875,9.27734375,-9.33837890625,32.1044921875
36847.408255708,-1.2552490234375,-0.538330078125,0.2381591796875,9.27734375,-9.33837890625,32.1044921875
36847.422892083,-1.2552490234375,-0.538330078125,0.1783447265625,9.27734375,-9.33837890625,32.1044921875
36847.423061125,-1.2552490234375,-0.538330078125,0.1783447265625,9.6435546875,-9.33837890625,32.1044921875
36847.452939666,-1.1734619140625,-0.538330078125,0.1783447265625,9.6435546875,-9.33837890625,32.1044921875
36847.453096166,-1.1734619140625,-0.4884033203125,0.1783447265625,9.6435546875,-9.33837890625,32.1044921875
36847.453546708,-1.1734619140625,-0.4884033203125,0.1783447265625,8.48388671875,-9.33837890625,32.1044921875
36847.45371425,-1.1734619140625,-0.4884033203125,0.1783447265625,8.48388671875,-6.65283203125,32.1044921875
36847.483028833,-1.1734619140625,-0.4881591796875,0.1783447265625,8.48388671875,-6.65283203125,32.1044921875
36847.4831935,-1.1734619140625,-0.4881591796875,0.192626953125,8.48388671875,-6.65283203125,32.1044921875
36847.4903075,-1.1734619140625,-0.4881591796875,0.192626953125,10.31494140625,-6.65283203125,32.1044921875
36847.490426541,-1.1734619140625,-0.4881591796875,0.192626953125,10.31494140625,-5.4931640625,32.1044921875
36847.57264475,-0.97998046875,-0.4881591796875,0.192626953125,10.31494140625,-5.4931640625,32.1044921875
36847.589135875,-0.97998046875,-0.466064453125,0.192626953125,10.31494140625,-5.4931640625,32.1044921875
36847.589569083,-0.97998046875,-0.466064453125,0.1636962890625,10.31494140625,-5.4931640625,32.1044921875
36847.589767125,-0.97998046875,-0.466064453125,0.1636962890625,10.31494140625,-0.48828125,32.1044921875
36847.589886,-0.97998046875,-0.466064453125,0.1636962890625,10.31494140625,-0.48828125,18.5546875
36847.603365125,-0.93408203125,-0.466064453125,0.1636962890625,10.31494140625,-0.48828125,18.5546875
36847.603629083,-0.93408203125,-0.337890625,0.1636962890625,10.31494140625,-0.48828125,18.5546875
36847.603881625,-0.93408203125,-0.337890625,0.1776123046875,10.31494140625,-0.48828125,18.5546875
36847.632462291,-0.93408203125,-0.337890625,0.1776123046875,10.31494140625,-8.48388671875,18.5546875
36847.634137375,-0.93408203125,-0.337890625,0.1776123046875,10.31494140625,-8.48388671875,4.45556640625
36847.634485375,-0.9166259765625,-0.337890625,0.1776123046875,10.31494140625,-8.48388671875,4.45556640625
36847.634604875,-0.9166259765625,-0.543212890625,0.1776123046875,10.31494140625,-8.48388671875,4.45556640625
36847.657685333,-0.9166259765625,-0.543212890625,0.1776123046875,10.31494140625,-6.2255859375,4.45556640625
36847.657806291,-0.9166259765625,-0.543212890625,0.1776123046875,10.31494140625,-6.2255859375,-1.03759765625
36847.677766208,-0.827880859375,-0.543212890625,0.1776123046875,10.31494140625,-6.2255859375,-1.03759765625
36847.677969333,-0.827880859375,-0.4393310546875,0.1776123046875,10.31494140625,-6.2255859375,-1.03759765625
36847.678697416,-0.827880859375,-0.4393310546875,0.2037353515625,10.31494140625,-6.2255859375,-1.03759765625
36847.678898458,-0.827880859375,-0.4393310546875,0.2037353515625,14.5263671875,-6.2255859375,-1.03759765625
36847.692788333,-0.7679443359375,-0.4393310546875,0.2037353515625,14.5263671875,-6.2255859375,-1.03759765625
36847.708199791,-0.7679443359375,-0.5408935546875,0.2037353515625,14.5263671875,-6.2255859375,-1.03759765625
36847.708346666,-0.7679443359375,-0.5408935546875,0.197509765625,14.5263671875,-6.2255859375,-1.03759765625
36847.708423375,-0.7679443359375,-0.5408935546875,0.197509765625,14.5263671875,-13.0615234375,-1.03759765625
36847.708865041,-0.7679443359375,-0.5408935546875,0.197509765625,14.5263671875,-13.0615234375,-15.0146484375
36847.737622791,-0.825927734375,-0.5408935546875,0.197509765625,14.5263671875,-13.0615234375,-15.0146484375
36847.73781975,-0.825927734375,-0.785400390625,0.197509765625,14.5263671875,-13.0615234375,-15.0146484375
36847.767688166,-0.825927734375,-0.785400390625,-0.129150390625,14.5263671875,-13.0615234375,-15.0146484375
36847.768174333,-0.825927734375,-0.785400390625,-0.129150390625,14.5263671875,-6.103515625,-15.0146484375
36847.791055333,-0.825927734375,-0.785400390625,-0.129150390625,14.5263671875,-6.103515625,-39.24560546875
36847.791136583,-0.452392578125,-0.785400390625,-0.129150390625,14.5263671875,-6.103515625,-39.24560546875
36847.791210291,-0.452392578125,-0.57421875,-0.129150390625,14.5263671875,-6.103515625,-39.24560546875
36847.791365666,-0.452392578125,-0.57421875,0.21728515625,14.5263671875,-6.103515625,-39.24560546875
36847.843275125,-0.452392578125,-0.57421875,0.21728515625,14.5263671875,-6.103515625,-69.091796875
36847.843609916,-0.2747802734375,-0.57421875,0.21728515625,14.5263671875,-6.103515625,-69.091796875
36847.843779875,-0.2747802734375,-0.5955810546875,0.21728515625,14.5263671875,-6.103515625,-69.091796875
36847.873914125,-0.2747802734375,-0.5955810546875,0.21728515625,-14.46533203125,-6.103515625,-69.091796875
36847.873998375,-0.2747802734375,-0.5955810546875,0.21728515625,-14.46533203125,-8.36181640625,-69.091796875
36847.874072041,-0.2747802734375,-0.5955810546875,0.21728515625,-14.46533203125,-8.36181640625,-89.41650390625
36847.874143166,-0.2578125,-0.5955810546875,0.21728515625,-14.46533203125,-8.36181640625,-89.41650390625
36847.902404458,-0.2578125,-0.5955810546875,0.21728515625,-47.30224609375,-8.36181640625,-89.41650390625
36847.902490916,-0.2578125,-0.5955810546875,0.21728515625,-47.30224609375,-19.8974609375,-89.41650390625
36847.923670208,-0.2578125,-0.5955810546875,0.21728515625,-47.30224609375,-19.8974609375,-58.10546875
36847.946965708,-0.3831787109375,-0.5955810546875,0.21728515625,-47.30224609375,-19.8974609375,-58.10546875
36847.962926708,-0.3831787109375,-0.5955810546875,0.21728515625,-112.73193359375,-19.8974609375,-58.10546875
36848.01112875,-0.3831787109375,-0.5955810546875,0.21728515625,-112.73193359375,-19.8974609375,-18.1884765625
36848.011414166,-0.5357666015625,-0.5955810546875,0.21728515625,-112.73193359375,-19.8974609375,-18.1884765625
36848.011543125,-0.5357666015625,-0.5955810546875,0.169189453125,-112.73193359375,-19.8974609375,-18.1884765625
36848.011631875,-0.5357666015625,-0.5955810546875,0.169189453125,-24.59716796875,-19.8974609375,-18.1884765625
36848.040913708,-0.5357666015625,-0.5955810546875,0.169189453125,-24.59716796875,-19.8974609375,60.72998046875
36848.057538333,-0.854736328125,-0.5955810546875,0.169189453125,-24.59716796875,-19.8974609375,60.72998046875
36848.057616291,-0.854736328125,-0.5615234375,0.169189453125,-24.59716796875,-19.8974609375,60.72998046875
36848.057681291,-0.854736328125,-0.5615234375,0.2078857421875,-24.59716796875,-19.8974609375,60.72998046875
36848.057743375,-0.854736328125,-0.5615234375,0.2078857421875,-15.5029296875,-19.8974609375,60.72998046875
36848.068029708,-0.8323974609375,-0.5615234375,0.2078857421875,-15.5029296875,-19.8974609375,60.72998046875
36848.073446333,-0.8323974609375,-0.6041259765625,0.2078857421875,-15.5029296875,-19.8974609375,60.72998046875
36848.083111041,-0.8323974609375,-0.6041259765625,0.1878662109375,-15.5029296875,-19.8974609375,60.72998046875
36848.083321791,-0.8323974609375,-0.6041259765625,0.1878662109375,-15.5029296875,-4.45556640625,60.72998046875
36848.083437166,-0.8323974609375,-0.6041259765625,0.1878662109375,-15.5029296875,-4.45556640625,40.283203125
36848.17390875,-0.8515625,-0.6041259765625,0.1878662109375,-15.5029296875,-4.45556640625,40.283203125
36848.17486675,-0.8515625,-0.3575439453125,0.1878662109375,-15.5029296875,-4.45556640625,40.283203125
36848.175457333,-0.8515625,-0.3575439453125,0.2086181640625,-15.5029296875,-4.45556640625,40.283203125
36848.1757765,-0.8515625,-0.3575439453125,0.2086181640625,-15.5029296875,-1.3427734375,40.283203125
36848.191518375,-0.941162109375,-0.3575439453125,0.2086181640625,-15.5029296875,-1.3427734375,40.283203125
36848.191614916,-0.941162109375,-0.4219970703125,0.2086181640625,-15.5029296875,-1.3427734375,40.283203125
36848.191702083,-0.941162109375,-0.4219970703125,0.1663818359375,-15.5029296875,-1.3427734375,40.283203125
36848.248978833,-0.941162109375,-0.4219970703125,0.1663818359375,-15.5029296875,14.0380859375,40.283203125
36848.249541125,-0.941162109375,-0.4219970703125,0.1663818359375,-15.5029296875,14.0380859375,23.8037109375
36848.249673208,-0.768798828125,-0.4219970703125,0.1663818359375,-15.5029296875,14.0380859375,23.8037109375
36848.249811416,-0.768798828125,-0.5126953125,0.1663818359375,-15.5029296875,14.0380859375,23.8037109375
36848.274012958,-0.768798828125,-0.5126953125,0.1663818359375,-15.5029296875,18.49365234375,23.8037109375
36848.274091208,-0.768798828125,-0.5126953125,0.1663818359375,-15.5029296875,18.49365234375,4.638671875
36848.27787475,-0.94482421875,-0.5126953125,0.1663818359375,-15.5029296875,18.49365234375,4.638671875
36848.278104583,-0.94482421875,-0.456787109375,0.1663818359375,-15.5029296875,18.49365234375,4.638671875
36848.278234583,-0.94482421875,-0.456787109375,0.2008056640625,-15.5029296875,18.49365234375,4.638671875
36848.29286525,-0.94482421875,-0.456787109375,0.2008056640625,-15.5029296875,11.77978515625,4.638671875
36848.293018208,-0.94482421875,-0.456787109375,0.2008056640625,-15.5029296875,11.77978515625,-0.8544921875
36848.3077985,-0.880615234375,-0.456787109375,0.2008056640625,-15.5029296875,11.77978515625,-0.8544921875
36848.308029666,-0.880615234375,-0.4327392578125,0.2008056640625,-15.5029296875,11.77978515625,-0.8544921875
36848.308125916,-0.880615234375,-0.4327392578125,0.197998046875,-15.5029296875,11.77978515625,-0.8544921875
36848.33741675,-0.880615234375,-0.4327392578125,0.197998046875,-15.5029296875,4.2724609375,-0.8544921875
36848.338769916,-0.880615234375,-0.4327392578125,0.197998046875,-15.5029296875,4.2724609375,-11.23046875
36848.338962833,-0.9656982421875,-0.4327392578125,0.197998046875,-15.5029296875,4.2724609375,-11.23046875
36848.339396666,-0.9656982421875,-0.4658203125,0.197998046875,-15.5029296875,4.2724609375,-11.23046875
36848.444549458,-0.9656982421875,-0.4658203125,0.197998046875,-15.5029296875,3.23486328125,-11.23046875
36848.44531825,-0.9656982421875,-0.4658203125,0.197998046875,-15.5029296875,3.23486328125,-14.09912109375
36848.445548166,-0.9129638671875,-0.4658203125,0.197998046875,-15.5029296875,3.23486328125,-14.09912109375
36848.445843541,-0.9129638671875,-0.477294921875,0.197998046875,-15.5029296875,3.23486328125,-14.09912109375
36848.474221875,-0.9129638671875,-0.477294921875,0.197998046875,-15.5029296875,8.9111328125,-14.09912109375
36848.474308416,-0.9129638671875,-0.477294921875,0.197998046875,-15.5029296875,8.9111328125,-20.1416015625
36848.490988083,-1.0120849609375,-0.477294921875,0.197998046875,-15.5029296875,8.9111328125,-20.1416015625
36848.491075916,-1.0120849609375,-0.463623046875,0.197998046875,-15.5029296875,8.9111328125,-20.1416015625
36848.491148208,-1.0120849609375,-0.463623046875,0.1365966796875,-15.5029296875,8.9111328125,-20.1416015625
36848.491220291,-1.0120849609375,-0.463623046875,0.1365966796875,11.41357421875,8.9111328125,-20.1416015625
36848.532568416,-1.036865234375,-0.463623046875,0.1365966796875,11.41357421875,8.9111328125,-20.1416015625
36848.533821166,-1.036865234375,-0.4132080078125,0.1365966796875,11.41357421875,8.9111328125,-20.1416015625
36848.54812375,-1.036865234375,-0.4132080078125,0.1617431640625,11.41357421875,8.9111328125,-20.1416015625
36848.548353375,-1.036865234375,-0.4132080078125,0.1617431640625,8.97216796875,8.9111328125,-20.1416015625
36848.572615125,-1.01123046875,-0.4132080078125,0.1617431640625,8.97216796875,8.9111328125,-20.1416015625
36848.572663416,-1.01123046875,-0.3956298828125,0.1617431640625,8.97216796875,8.9111328125,-20.1416015625
36848.572703666,-1.01123046875,-0.3956298828125,0.1617431640625,17.15087890625,8.9111328125,-20.1416015625
36848.57274225,-1.01123046875,-0.3956298828125,0.1617431640625,17.15087890625,6.7138671875,-20.1416015625
36848.592727416,-1.0279541015625,-0.3956298828125,0.1617431640625,17.15087890625,6.7138671875,-20.1416015625
36848.592904916,-1.0279541015625,-0.41015625,0.1617431640625,17.15087890625,6.7138671875,-20.1416015625
36848.593528916,-1.0279541015625,-0.41015625,0.149658203125,17.15087890625,6.7138671875,-20.1416015625
36848.593675916,-1.0279541015625,-0.41015625,0.149658203125,3.5400390625,6.7138671875,-20.1416015625
36848.607978416,-1.0333251953125,-0.41015625,0.149658203125,3.5400390625,6.7138671875,-20.1416015625
36848.623508666,-1.0333251953125,-0.3734130859375,0.149658203125,3.5400390625,6.7138671875,-20.1416015625
36848.62363925,-1.0333251953125,-0.3734130859375,0.1480712890625,3.5400390625,6.7138671875,-20.1416015625
36848.623722583,-1.0333251953125,-0.3734130859375,0.1480712890625,3.5400390625,13.5498046875,-20.1416015625
36848.623897125,-1.0333251953125,-0.3734130859375,0.1480712890625,3.5400390625,13.5498046875,-23.37646484375
36848.639624583,-0.9884033203125,-0.3734130859375,0.1480712890625,3.5400390625,13.5498046875,-23.37646484375
36848.639686916,-0.9884033203125,-0.323486328125,0.1480712890625,3.5400390625,13.5498046875,-23.37646484375
36848.639736416,-0.9884033203125,-0.323486328125,0.16455078125,3.5400390625,13.5498046875,-23.37646484375
36848.658654333,-0.9884033203125,-0.323486328125,0.16455078125,3.5400390625,13.24462890625,-23.37646484375
36848.658914541,-0.9884033203125,-0.323486328125,0.16455078125,3.5400390625,13.24462890625,-21.42333984375
36848.67276225,-1.025146484375,-0.323486328125,0.16455078125,3.5400390625,13.24462890625,-21.42333984375
36848.672813125,-1.025146484375,-0.299560546875,0.16455078125,3.5400390625,13.24462890625,-21.42333984375
36848.672853875,-1.025146484375,-0.299560546875,0.1455078125,3.5400390625,13.24462890625,-21.42333984375
36848.682983208,-1.025146484375,-0.299560546875,0.1455078125,3.5400390625,6.65283203125,-21.42333984375
36848.689158916,-1.025146484375,-0.299560546875,0.1455078125,3.5400390625,6.65283203125,-18.85986328125
36848.742942375,-0.9783935546875,-0.299560546875,0.1455078125,3.5400390625,6.65283203125,-18.85986328125
36848.74307825,-0.9783935546875,-0.31103515625,0.1455078125,3.5400390625,6.65283203125,-18.85986328125
36848.743146416,-0.9783935546875,-0.31103515625,0.141845703125,3.5400390625,6.65283203125,-18.85986328125
36848.757915416,-0.9783935546875,-0.31103515625,0.141845703125,3.5400390625,11.962890625,-18.85986328125
36848.758143541,-0.9783935546875,-0.31103515625,0.141845703125,3.5400390625,11.962890625,-18.798828125
36848.78661075,-0.999755859375,-0.31103515625,0.141845703125,3.5400390625,11.962890625,-18.798828125
36848.78851575,-0.999755859375,-0.3134765625,0.141845703125,3.5400390625,11.962890625,-18.798828125
36848.788686958,-0.999755859375,-0.3134765625,0.1461181640625,3.5400390625,11.962890625,-18.798828125
36848.788799208,-0.999755859375,-0.3134765625,0.1461181640625,15.13671875,11.962890625,-18.798828125
36848.81678675,-1.0081787109375,-0.3134765625,0.1461181640625,15.13671875,11.962890625,-18.798828125
36848.82282525,-1.0081787109375,-0.2833251953125,0.1461181640625,15.13671875,11.962890625,-18.798828125
36848.822885208,-1.0081787109375,-0.2833251953125,0.1724853515625,15.13671875,11.962890625,-18.798828125
36848.861632708,-1.0081787109375,-0.2833251953125,0.1724853515625,15.13671875,17.02880859375,-18.798828125
36848.863393833,-1.0081787109375,-0.2833251953125,0.1724853515625,15.13671875,17.02880859375,-14.46533203125
36848.86350875,-1.123779296875,-0.2833251953125,0.1724853515625,15.13671875,17.02880859375,-14.46533203125
36848.863544,-1.123779296875,-0.289306640625,0.1724853515625,15.13671875,17.02880859375,-14.46533203125
36848.888707208,-1.123779296875,-0.289306640625,0.1724853515625,15.13671875,15.5029296875,-14.46533203125
36848.888747,-1.123779296875,-0.289306640625,0.1724853515625,15.13671875,15.5029296875,-6.103515625
NEW_REP,,,,,,
36848.906632583,-1.28369140625,-0.289306640625,0.1724853515625,15.13671875,15.5029296875,-6.103515625
36848.908345375,-1.28369140625,-0.4293212890625,0.1724853515625,15.13671875,15.5029296875,-6.103515625
36848.90844,-1.28369140625,-0.4293212890625,0.29736328125,15.13671875,15.5029296875,-6.103515625
36848.90847425,-1.28369140625,-0.4293212890625,0.29736328125,3.84521484375,15.5029296875,-6.103515625
36848.9264115,-1.3385009765625,-0.4293212890625,0.29736328125,3.84521484375,15.5029296875,-6.103515625
36848.926671166,-1.3385009765625,-0.4189453125,0.29736328125,3.84521484375,15.5029296875,-6.103515625
36848.926729,-1.3385009765625,-0.4189453125,0.2454833984375,3.84521484375,15.5029296875,-6.103515625
36848.953148833,-1.3385009765625,-0.4189453125,0.2454833984375,3.84521484375,13.427734375,-6.103515625
36848.983217208,-1.3385009765625,-0.4189453125,0.2454833984375,3.84521484375,13.427734375,9.82666015625
36848.983443708,-1.3507080078125,-0.4189453125,0.2454833984375,3.84521484375,13.427734375,9.82666015625
36848.983960416,-1.3507080078125,-0.428466796875,0.2454833984375,3.84521484375,13.427734375,9.82666015625
36848.984157041,-1.3507080078125,-0.428466796875,0.2454833984375,3.84521484375,9.94873046875,9.82666015625
36849.058651208,-1.310546875,-0.428466796875,0.2454833984375,3.84521484375,9.94873046875,9.82666015625
36849.059291291,-1.310546875,-0.4490966796875,0.2454833984375,3.84521484375,9.94873046875,9.82666015625
36849.059617125,-1.310546875,-0.4490966796875,0.2886962890625,3.84521484375,9.94873046875,9.82666015625
36849.060051958,-1.310546875,-0.4490966796875,0.2886962890625,3.84521484375,4.57763671875,9.82666015625
36849.0911215,-1.0926513671875,-0.4490966796875,0.2886962890625,3.84521484375,4.57763671875,9.82666015625
36849.091207708,-1.0926513671875,-0.3876953125,0.2886962890625,3.84521484375,4.57763671875,9.82666015625
36849.091282833,-1.0926513671875,-0.3876953125,0.278564453125,3.84521484375,4.57763671875,9.82666015625
36849.09135375,-1.0926513671875,-0.3876953125,0.278564453125,7.2021484375,4.57763671875,9.82666015625
36849.118466416,-1.0755615234375,-0.3876953125,0.278564453125,7.2021484375,4.57763671875,9.82666015625
36849.123894041,-1.0755615234375,-0.4129638671875,0.278564453125,7.2021484375,4.57763671875,9.82666015625
36849.124017333,-1.0755615234375,-0.4129638671875,0.2152099609375,7.2021484375,4.57763671875,9.82666015625
36849.124093625,-1.0755615234375,-0.4129638671875,0.2152099609375,7.2021484375,-6.591796875,9.82666015625
36849.133464625,-1.034423828125,-0.4129638671875,0.2152099609375,7.2021484375,-6.591796875,9.82666015625
36849.133703666,-1.034423828125,-0.370849609375,0.2152099609375,7.2021484375,-6.591796875,9.82666015625
36849.133789291,-1.034423828125,-0.370849609375,0.2230224609375,7.2021484375,-6.591796875,9.82666015625
36849.148192083,-1.034423828125,-0.370849609375,0.2230224609375,7.2021484375,-10.80322265625,9.82666015625
36849.148359416,-1.034423828125,-0.370849609375,0.2230224609375,7.2021484375,-10.80322265625,26.79443359375
36849.163170375,-1.08642578125,-0.370849609375,0.2230224609375,7.2021484375,-10.80322265625,26.79443359375
36849.163397583,-1.08642578125,-0.4185791015625,0.2230224609375,7.2021484375,-10.80322265625,26.79443359375
36849.1635095,-1.08642578125,-0.4185791015625,0.2125244140625,7.2021484375,-10.80322265625,26.79443359375
36849.178126208,-1.08642578125,-0.4185791015625,0.2125244140625,7.2021484375,-14.70947265625,26.79443359375
36849.178289791,-1.08642578125,-0.4185791015625,0.2125244140625,7.2021484375,-14.70947265625,23.8037109375
36849.222465875,-1.214599609375,-0.4185791015625,0.2125244140625,7.2021484375,-14.70947265625,23.8037109375
36849.227529375,-1.214599609375,-0.345947265625,0.2125244140625,7.2021484375,-14.70947265625,23.8037109375
36849.238034541,-1.214599609375,-0.345947265625,0.1903076171875,7.2021484375,-14.70947265625,23.8037109375
36849.282587041,-1.214599609375,-0.345947265625,0.1903076171875,7.2021484375,-19.775390625,23.8037109375
36849.342160041,-1.1610107421875,-0.345947265625,0.1903076171875,7.2021484375,-19.775390625,23.8037109375
36849.343819083,-1.1610107421875,-0.343505859375,0.1903076171875,7.2021484375,-19.775390625,23.8037109375
36849.344056166,-1.1610107421875,-0.343505859375,0.1903076171875,29.052734375,-19.775390625,23.8037109375
36849.373974166,-1.1610107421875,-0.343505859375,0.1903076171875,29.052734375,-19.775390625,29.47998046875
36849.374054625,-1.1610107421875,-0.42431640625,0.1903076171875,29.052734375,-19.775390625,29.47998046875
36849.37412675,-1.1610107421875,-0.42431640625,0.1153564453125,29.052734375,-19.775390625,29.47998046875
36849.374310791,-1.1610107421875,-0.42431640625,0.1153564453125,7.32421875,-19.775390625,29.47998046875
36849.390713208,-1.1610107421875,-0.42431640625,0.1153564453125,7.32421875,-19.775390625,6.65283203125
36849.418651541,-1.1068115234375,-0.42431640625,0.1153564453125,7.32421875,-19.775390625,6.65283203125
36849.421363916,-1.1068115234375,-0.4310302734375,0.1153564453125,7.32421875,-19.775390625,6.65283203125
36849.421528416,-1.1068115234375,-0.4310302734375,0.2305908203125,7.32421875,-19.775390625,6.65283203125
36849.448177041,-1.1068115234375,-0.4310302734375,0.2305908203125,13.7939453125,-19.775390625,6.65283203125
36849.448390666,-0.8431396484375,-0.4310302734375,0.2305908203125,13.7939453125,-19.775390625,6.65283203125
36849.476992541,-0.8431396484375,-0.2764892578125,0.2305908203125,13.7939453125,-19.775390625,6.65283203125
36849.478524333,-0.8431396484375,-0.2764892578125,0.28759765625,13.7939453125,-19.775390625,6.65283203125
36849.478755625,-0.8431396484375,-0.2764892578125,0.28759765625,13.7939453125,12.3291015625,6.65283203125
36849.478855291,-0.8431396484375,-0.2764892578125,0.28759765625,13.7939453125,12.3291015625,-23.5595703125
36849.507767458,-0.2611083984375,-0.2764892578125,0.28759765625,13.7939453125,12.3291015625,-23.5595703125
36849.507988791,-0.2611083984375,-0.3031005859375,0.28759765625,13.7939453125,12.3291015625,-23.5595703125
36849.523186125,-0.2611083984375,-0.3031005859375,0.322265625,13.7939453125,12.3291015625,-23.5595703125
36849.523396291,-0.2611083984375,-0.3031005859375,0.322265625,13.7939453125,12.3291015625,-33.935546875
36849.540586958,-0.31201171875,-0.3031005859375,0.322265625,13.7939453125,12.3291015625,-33.935546875
36849.540677916,-0.31201171875,-0.5421142578125,0.322265625,13.7939453125,12.3291015625,-33.935546875
36849.54074925,-0.31201171875,-0.5421142578125,0.1951904296875,13.7939453125,12.3291015625,-33.935546875
36849.567475,-0.413330078125,-0.5421142578125,0.1951904296875,13.7939453125,12.3291015625,-33.935546875
36849.573632666,-0.413330078125,-0.4794921875,0.1951904296875,13.7939453125,12.3291015625,-33.935546875
36849.573702416,-0.413330078125,-0.4794921875,0.04150390625,13.7939453125,12.3291015625,-33.935546875
36849.573763916,-0.413330078125,-0.4794921875,0.04150390625,-43.15185546875,12.3291015625,-33.935546875
36849.673530625,-0.4344482421875,-0.4794921875,0.04150390625,-43.15185546875,12.3291015625,-33.935546875
36849.673984916,-0.4344482421875,-0.3887939453125,0.04150390625,-43.15185546875,12.3291015625,-33.935546875
36849.733067291,-0.4344482421875,-0.3887939453125,-0.043212890625,-43.15185546875,12.3291015625,-33.935546875
36849.778126541,-0.4344482421875,-0.3887939453125,-0.043212890625,-43.15185546875,-49.74365234375,-33.935546875
36849.778725041,-0.6346435546875,-0.3887939453125,-0.043212890625,-43.15185546875,-49.74365234375,-33.935546875
36849.807333,-0.6346435546875,-0.4447021484375,-0.043212890625,-43.15185546875,-49.74365234375,-33.935546875
36849.807418291,-0.6346435546875,-0.4447021484375,-0.043212890625,-11.53564453125,-49.74365234375,-33.935546875
36849.824520958,-0.6346435546875,-0.4447021484375,-0.043212890625,-11.53564453125,-49.74365234375,33.0810546875
36849.824608416,-0.7781982421875,-0.4447021484375,-0.043212890625,-11.53564453125,-49.74365234375,33.0810546875
36849.824683833,-0.7781982421875,-0.4066162109375,-0.043212890625,-11.53564453125,-49.74365234375,33.0810546875
36849.840526916,-0.7781982421875,-0.4066162109375,0.171875,-11.53564453125,-49.74365234375,33.0810546875
36849.840607333,-0.7781982421875,-0.4066162109375,0.171875,-11.53564453125,18.24951171875,33.0810546875
36849.84069375,-0.7781982421875,-0.4066162109375,0.171875,-11.53564453125,18.24951171875,24.4140625
36849.867177291,-0.840576171875,-0.4066162109375,0.171875,-11.53564453125,18.24951171875,24.4140625
36849.883473833,-0.840576171875,-0.4315185546875,0.171875,-11.53564453125,18.24951171875,24.4140625
36849.883730416,-0.840576171875,-0.4315185546875,0.1934814453125,-11.53564453125,18.24951171875,24.4140625
36849.88382,-0.840576171875,-0.4315185546875,0.1934814453125,3.2958984375,18.24951171875,24.4140625
36849.89001175,-0.8829345703125,-0.4315185546875,0.1934814453125,3.2958984375,18.24951171875,24.4140625
36849.943364833,-0.8829345703125,-0.4315185546875,0.1689453125,3.2958984375,18.24951171875,24.4140625
36849.943716041,-0.8829345703125,-0.4315185546875,0.1689453125,-3.90625,18.24951171875,24.4140625
36849.943887416,-0.8829345703125,-0.4315185546875,0.1689453125,-3.90625,15.2587890625,24.4140625
36849.973955083,-0.7762451171875,-0.4315185546875,0.1689453125,-3.90625,15.2587890625,24.4140625
36849.974056666,-0.7762451171875,-0.3681640625,0.1689453125,-3.90625,15.2587890625,24.4140625
36849.990719125,-0.7762451171875,-0.3681640625,0.2109375,-3.90625,15.2587890625,24.4140625
36849.990802166,-0.7762451171875,-0.3681640625,0.2109375,-3.90625,10.009765625,24.4140625
36849.990876458,-0.7762451171875,-0.3681640625,0.2109375,-3.90625,10.009765625,7.568359375
36850.007034541,-0.9375,-0.3681640625,0.2109375,-3.90625,10.009765625,7.568359375
36850.007109916,-0.9375,-0.4521484375,0.2109375,-3.90625,10.009765625,7.568359375
36850.00718075,-0.9375,-0.4521484375,0.1787109375,-3.90625,10.009765625,7.568359375
36850.017742333,-0.9375,-0.4521484375,0.1787109375,-3.90625,10.009765625,-0.06103515625
36850.03554525,-0.9393310546875,-0.4521484375,0.1787109375,-3.90625,10.009765625,-0.06103515625
36850.03575875,-0.9393310546875,-0.3436279296875,0.1787109375,-3.90625,10.009765625,-0.06103515625
36850.035869,-0.9393310546875,-0.3436279296875,0.2811279296875,-3.90625,10.009765625,-0.06103515625
36850.050334208,-0.9393310546875,-0.3436279296875,0.2811279296875,-3.90625,1.03759765625,-0.06103515625
36850.050408583,-0.9393310546875,-0.3436279296875,0.2811279296875,-3.90625,1.03759765625,-0.91552734375
36850.065961208,-1.010986328125,-0.3436279296875,0.2811279296875,-3.90625,1.03759765625,-0.91552734375
36850.092867,-1.010986328125,-0.48876953125,0.2811279296875,-3.90625,1.03759765625,-0.91552734375
36850.093035916,-1.010986328125,-0.48876953125,0.1341552734375,-3.90625,1.03759765625,-0.91552734375
36850.093742041,-1.010986328125,-0.48876953125,0.1341552734375,-3.90625,-3.90625,-0.91552734375
36850.093887958,-1.010986328125,-0.48876953125,0.1341552734375,-3.90625,-3.90625,-0.42724609375
36850.107889125,-1.010986328125,-0.48876953125,0.1712646484375,-3.90625,-3.90625,-0.42724609375
36850.123544958,-1.010986328125,-0.48876953125,0.1712646484375,-6.591796875,-3.90625,-0.42724609375
36850.123629166,-1.010986328125,-0.48876953125,0.1712646484375,-6.591796875,-1.40380859375,-0.42724609375
36850.123991875,-1.00390625,-0.48876953125,0.1712646484375,-6.591796875,-1.40380859375,-0.42724609375
36850.12419525,-1.00390625,-0.4169921875,0.1712646484375,-6.591796875,-1.40380859375,-0.42724609375
36850.140178,-1.00390625,-0.4169921875,0.1712646484375,-6.591796875,-5.9814453125,-0.42724609375
36850.156832208,-1.00390625,-0.4169921875,0.1712646484375,-6.591796875,-5.9814453125,-9.6435546875
36850.1738445,-0.9566650390625,-0.4169921875,0.1712646484375,-6.591796875,-5.9814453125,-9.6435546875
36850.173925166,-0.9566650390625,-0.4609375,0.1712646484375,-6.591796875,-5.9814453125,-9.6435546875
36850.173996375,-0.9566650390625,-0.4609375,0.1552734375,-6.591796875,-5.9814453125,-9.6435546875
36850.189110958,-0.9566650390625,-0.4609375,0.1552734375,-6.591796875,-2.685546875,-9.6435546875
36850.189192666,-0.9566650390625,-0.4609375,0.1552734375,-6.591796875,-2.685546875,-14.404296875
36850.24367925,-0.9674072265625,-0.4609375,0.1552734375,-6.591796875,-2.685546875,-14.404296875
36850.244015291,-0.9674072265625,-0.52880859375,0.1552734375,-6.591796875,-2.685546875,-14.404296875
36850.244185125,-0.9674072265625,-0.52880859375,0.0904541015625,-6.591796875,-2.685546875,-14.404296875
36850.272777833,-0.9674072265625,-0.52880859375,0.0904541015625,-6.591796875,0.30517578125,-14.404296875
36850.291402416,-0.9674072265625,-0.52880859375,0.0904541015625,-6.591796875,0.30517578125,-24.47509765625
36850.291508458,-0.9805908203125,-0.52880859375,0.0904541015625,-6.591796875,0.30517578125,-24.47509765625
36850.291595958,-0.9805908203125,-0.52880859375,0.2418212890625,-6.591796875,0.30517578125,-24.47509765625
36850.291776125,-0.9805908203125,-0.52880859375,0.2418212890625,-4.69970703125,0.30517578125,-24.47509765625
36850.317238541,-1.0174560546875,-0.52880859375,0.2418212890625,-4.69970703125,0.30517578125,-24.47509765625
36850.324239958,-1.0174560546875,-0.3863525390625,0.2418212890625,-4.69970703125,0.30517578125,-24.47509765625
36850.333202708,-1.0174560546875,-0.3863525390625,0.2623291015625,-4.69970703125,0.30517578125,-24.47509765625
36850.333421083,-1.0174560546875,-0.3863525390625,0.2623291015625,-4.69970703125,4.39453125,-24.47509765625
36850.348470833,-1.03076171875,-0.3863525390625,0.2623291015625,-4.69970703125,4.39453125,-24.47509765625
36850.348758041,-1.03076171875,-0.300537109375,0.2623291015625,-4.69970703125,4.39453125,-24.47509765625
36850.348928041,-1.03076171875,-0.300537109375,0.3284912109375,-4.69970703125,4.39453125,-24.47509765625
36850.36380475,-1.03076171875,-0.300537109375,0.3284912109375,-4.69970703125,4.39453125,-28.4423828125
36850.392270208,-1.0523681640625,-0.300537109375,0.3284912109375,-4.69970703125,4.39453125,-28.4423828125
36850.422872458,-1.0523681640625,-0.359619140625,0.3284912109375,-4.69970703125,4.39453125,-28.4423828125
36850.423094083,-1.0523681640625,-0.359619140625,0.2298583984375,-4.69970703125,4.39453125,-28.4423828125
36850.437969416,-1.0523681640625,-0.359619140625,0.2298583984375,15.5029296875,4.39453125,-28.4423828125
36850.456567125,-1.020751953125,-0.359619140625,0.2298583984375,15.5029296875,4.39453125,-28.4423828125
36850.456638333,-1.020751953125,-0.359619140625,0.2723388671875,15.5029296875,4.39453125,-28.4423828125
36850.483579958,-1.020751953125,-0.359619140625,0.2723388671875,1.953125,4.39453125,-28.4423828125
36850.483802916,-1.020751953125,-0.359619140625,0.2723388671875,1.953125,4.39453125,-25.93994140625
36850.483920625,-1.0294189453125,-0.359619140625,0.2723388671875,1.953125,4.39453125,-25.93994140625
36850.489868625,-1.0294189453125,-0.2630615234375,0.2723388671875,1.953125,4.39453125,-25.93994140625
NEW_REP,,,,,,
36850.5600745,-1.0294189453125,-0.2630615234375,0.2723388671875,1.953125,3.96728515625,-25.93994140625
36850.560374916,-1.0294189453125,-0.2630615234375,0.2723388671875,1.953125,3.96728515625,-21.05712890625
36850.560508541,-1.062255859375,-0.2630615234375,0.2723388671875,1.953125,3.96728515625,-21.05712890625
36850.560593333,-1.062255859375,-0.2630615234375,0.2196044921875,1.953125,3.96728515625,-21.05712890625
36850.59052175,-1.062255859375,-0.2630615234375,0.2196044921875,1.953125,6.28662109375,-21.05712890625
36850.607290041,-1.062255859375,-0.2630615234375,0.2196044921875,1.953125,6.28662109375,-17.578125
36850.618362541,-1.1143798828125,-0.2630615234375,0.2196044921875,1.953125,6.28662109375,-17.578125
36850.623720708,-1.1143798828125,-0.1588134765625,0.2196044921875,1.953125,6.28662109375,-17.578125
36850.623884458,-1.1143798828125,-0.1588134765625,0.2391357421875,1.953125,6.28662109375,-17.578125
36850.623962708,-1.1143798828125,-0.1588134765625,0.2391357421875,1.953125,2.62451171875,-17.578125
36850.64845025,-1.1666259765625,-0.1588134765625,0.2391357421875,1.953125,2.62451171875,-17.578125
36850.649685375,-1.1666259765625,-0.312255859375,0.2391357421875,1.953125,2.62451171875,-17.578125
36850.649971166,-1.1666259765625,-0.312255859375,0.1942138671875,1.953125,2.62451171875,-17.578125
36850.650077833,-1.1666259765625,-0.312255859375,0.1942138671875,44.61669921875,2.62451171875,-17.578125
36850.663181541,-1.1788330078125,-0.312255859375,0.1942138671875,44.61669921875,2.62451171875,-17.578125
36850.66338725,-1.1788330078125,-0.3087158203125,0.1942138671875,44.61669921875,2.62451171875,-17.578125
36850.66346,-1.1788330078125,-0.3087158203125,0.223876953125,44.61669921875,2.62451171875,-17.578125
36850.678376458,-1.1788330078125,-0.3087158203125,0.223876953125,44.61669921875,4.0283203125,-17.578125
36850.678552333,-1.1788330078125,-0.3087158203125,0.223876953125,44.61669921875,4.0283203125,16.4794921875
36850.707603208,-1.1866455078125,-0.3087158203125,0.223876953125,44.61669921875,4.0283203125,16.4794921875
36850.707784125,-1.1866455078125,-0.3145751953125,0.223876953125,44.61669921875,4.0283203125,16.4794921875
36850.723417541,-1.1866455078125,-0.3145751953125,0.275390625,44.61669921875,4.0283203125,16.4794921875
36850.723602416,-1.1866455078125,-0.3145751953125,0.275390625,20.751953125,4.0283203125,16.4794921875
36850.72470825,-1.20751953125,-0.3145751953125,0.275390625,20.751953125,4.0283203125,16.4794921875
36850.724873125,-1.20751953125,-0.378662109375,0.275390625,20.751953125,4.0283203125,16.4794921875
36850.740500333,-1.20751953125,-0.378662109375,0.275390625,25.93994140625,4.0283203125,16.4794921875
36850.740579916,-1.20751953125,-0.378662109375,0.275390625,25.93994140625,-6.77490234375,16.4794921875
36850.74065225,-1.20751953125,-0.378662109375,0.275390625,25.93994140625,-6.77490234375,32.40966796875
36850.757405916,-1.207763671875,-0.378662109375,0.275390625,25.93994140625,-6.77490234375,32.40966796875
36850.757471208,-1.207763671875,-0.4111328125,0.275390625,25.93994140625,-6.77490234375,32.40966796875
36850.757540125,-1.207763671875,-0.4111328125,0.202392578125,25.93994140625,-6.77490234375,32.40966796875
36850.768026041,-1.207763671875,-0.4111328125,0.202392578125,25.93994140625,-8.056640625,32.40966796875
36850.773467625,-1.207763671875,-0.4111328125,0.202392578125,25.93994140625,-8.056640625,34.66796875
36850.844010541,-1.11376953125,-0.4111328125,0.202392578125,25.93994140625,-8.056640625,34.66796875
36850.844137125,-1.11376953125,-0.3656005859375,0.202392578125,25.93994140625,-8.056640625,34.66796875
36850.844426625,-1.11376953125,-0.3656005859375,0.222900390625,25.93994140625,-8.056640625,34.66796875
36850.844568416,-1.11376953125,-0.3656005859375,0.222900390625,-2.38037109375,-8.056640625,34.66796875
36850.873545333,-1.0845947265625,-0.3656005859375,0.222900390625,-2.38037109375,-8.056640625,34.66796875
36850.873746333,-1.0845947265625,-0.3583984375,0.222900390625,-2.38037109375,-8.056640625,34.66796875
36850.874328208,-1.0845947265625,-0.3583984375,0.2091064453125,-2.38037109375,-8.056640625,34.66796875
36850.874537166,-1.0845947265625,-0.3583984375,0.2091064453125,-2.38037109375,-7.2021484375,34.66796875
36850.903150125,-0.9122314453125,-0.3583984375,0.2091064453125,-2.38037109375,-7.2021484375,34.66796875
36850.9033505,-0.9122314453125,-0.353271484375,0.2091064453125,-2.38037109375,-7.2021484375,34.66796875
36850.903833916,-0.9122314453125,-0.353271484375,0.2039794921875,-2.38037109375,-7.2021484375,34.66796875
36850.904010375,-0.9122314453125,-0.353271484375,0.2039794921875,-6.34765625,-7.2021484375,34.66796875
36850.918525708,-0.876953125,-0.353271484375,0.2039794921875,-6.34765625,-7.2021484375,34.66796875
36850.918621166,-0.876953125,-0.3309326171875,0.2039794921875,-6.34765625,-7.2021484375,34.66796875
36850.919234416,-0.876953125,-0.3309326171875,0.190185546875,-6.34765625,-7.2021484375,34.66796875
36850.93418075,-0.876953125,-0.3309326171875,0.190185546875,-6.34765625,-11.65771484375,34.66796875
36850.934283666,-0.876953125,-0.3309326171875,0.190185546875,-6.34765625,-11.65771484375,21.6064453125
36850.957907291,-0.8826904296875,-0.3309326171875,0.190185546875,-6.34765625,-11.65771484375,21.6064453125
36850.958004666,-0.8826904296875,-0.4208984375,0.190185546875,-6.34765625,-11.65771484375,21.6064453125
36850.958089708,-0.8826904296875,-0.4208984375,0.1639404296875,-6.34765625,-11.65771484375,21.6064453125
36850.992071875,-0.8826904296875,-0.4208984375,0.1639404296875,-6.34765625,-16.66259765625,21.6064453125
36850.993836916,-0.8826904296875,-0.4208984375,0.1639404296875,-6.34765625,-16.66259765625,21.66748046875
36850.994082416,-0.8365478515625,-0.4208984375,0.1639404296875,-6.34765625,-16.66259765625,21.66748046875
36850.994220458,-0.8365478515625,-0.4234619140625,0.1639404296875,-6.34765625,-16.66259765625,21.66748046875
36851.008056541,-0.8365478515625,-0.4234619140625,0.1639404296875,-6.34765625,-16.78466796875,21.66748046875
36851.008209166,-0.8365478515625,-0.4234619140625,0.1639404296875,-6.34765625,-16.78466796875,14.404296875
36851.02511225,-0.88671875,-0.4234619140625,0.1639404296875,-6.34765625,-16.78466796875,14.404296875
36851.025196375,-0.88671875,-0.3973388671875,0.1639404296875,-6.34765625,-16.78466796875,14.404296875
36851.025267541,-0.88671875,-0.3973388671875,0.1256103515625,-6.34765625,-16.78466796875,14.404296875
36851.052878083,-0.88671875,-0.3973388671875,0.1256103515625,-6.34765625,-15.68603515625,14.404296875
36851.074490958,-0.88671875,-0.3973388671875,0.1256103515625,-6.34765625,-15.68603515625,8.9111328125
36851.074569791,-0.90576171875,-0.3973388671875,0.1256103515625,-6.34765625,-15.68603515625,8.9111328125
36851.074647583,-0.90576171875,-0.398681640625,0.1256103515625,-6.34765625,-15.68603515625,8.9111328125
36851.07471775,-0.90576171875,-0.398681640625,0.1256103515625,-6.34765625,-15.0146484375,8.9111328125
36851.159538291,-0.9466552734375,-0.398681640625,0.1256103515625,-6.34765625,-15.0146484375,8.9111328125
36851.160297041,-0.9466552734375,-0.4630126953125,0.1256103515625,-6.34765625,-15.0146484375,8.9111328125
36851.167548625,-0.9466552734375,-0.4630126953125,0.168212890625,-6.34765625,-15.0146484375,8.9111328125
36851.167680708,-0.9466552734375,-0.4630126953125,0.168212890625,-8.97216796875,-15.0146484375,8.9111328125
36851.17352475,-0.9765625,-0.4630126953125,0.168212890625,-8.97216796875,-15.0146484375,8.9111328125
36851.173847916,-0.9765625,-0.4197998046875,0.168212890625,-8.97216796875,-15.0146484375,8.9111328125
36851.174006125,-0.9765625,-0.4197998046875,0.146728515625,-8.97216796875,-15.0146484375,8.9111328125
36851.203540541,-0.9765625,-0.4197998046875,0.146728515625,-8.97216796875,-10.92529296875,8.9111328125
36851.203797083,-0.9765625,-0.4197998046875,0.146728515625,-8.97216796875,-10.92529296875,-0.30517578125
36851.204083916,-0.823974609375,-0.4197998046875,0.146728515625,-8.97216796875,-10.92529296875,-0.30517578125
36851.204331625,-0.823974609375,-0.392333984375,0.146728515625,-8.97216796875,-10.92529296875,-0.30517578125
36851.224055541,-0.823974609375,-0.392333984375,0.146728515625,-8.97216796875,-14.34326171875,-0.30517578125
36851.224140666,-0.823974609375,-0.392333984375,0.146728515625,-8.97216796875,-14.34326171875,-11.962890625
36851.247266125,-0.855712890625,-0.392333984375,0.146728515625,-8.97216796875,-14.34326171875,-11.962890625
36851.24892325,-0.855712890625,-0.3997802734375,0.146728515625,-8.97216796875,-14.34326171875,-11.962890625
36851.249117791,-0.855712890625,-0.3997802734375,0.220458984375,-8.97216796875,-14.34326171875,-11.962890625
36851.249192458,-0.855712890625,-0.3997802734375,0.220458984375,11.8408203125,-14.34326171875,-11.962890625
36851.263027458,-0.9251708984375,-0.3997802734375,0.220458984375,11.8408203125,-14.34326171875,-11.962890625
36851.26327225,-0.9251708984375,-0.4556884765625,0.220458984375,11.8408203125,-14.34326171875,-11.962890625
36851.263394416,-0.9251708984375,-0.4556884765625,0.189453125,11.8408203125,-14.34326171875,-11.962890625
36851.278443125,-0.9251708984375,-0.4556884765625,0.189453125,11.8408203125,-16.2353515625,-11.962890625
36851.278622458,-0.9251708984375,-0.4556884765625,0.189453125,11.8408203125,-16.2353515625,-18.310546875
36851.293045041,-1.0150146484375,-0.4556884765625,0.189453125,11.8408203125,-16.2353515625,-18.310546875
36851.293307708,-1.0150146484375,-0.5059814453125,0.189453125,11.8408203125,-16.2353515625,-18.310546875
36851.293421708,-1.0150146484375,-0.5059814453125,0.120361328125,11.8408203125,-16.2353515625,-18.310546875
36851.322161791,-1.0150146484375,-0.5059814453125,0.120361328125,11.8408203125,-15.07568359375,-18.310546875
36851.324140375,-1.0150146484375,-0.5059814453125,0.120361328125,11.8408203125,-15.07568359375,-23.681640625
36851.324341625,-1.0970458984375,-0.5059814453125,0.120361328125,11.8408203125,-15.07568359375,-23.681640625
36851.340607833,-1.0970458984375,-0.5059814453125,0.1624755859375,11.8408203125,-15.07568359375,-23.681640625
36851.340684833,-1.0970458984375,-0.5059814453125,0.1624755859375,13.3056640625,-15.07568359375,-23.681640625
36851.340758541,-1.0970458984375,-0.5059814453125,0.1624755859375,13.3056640625,-11.71875,-23.681640625
36851.473799833,-1.0159912109375,-0.5059814453125,0.1624755859375,13.3056640625,-11.71875,-23.681640625
36851.474250416,-1.0159912109375,-0.3980712890625,0.1624755859375,13.3056640625,-11.71875,-23.681640625
36851.474731541,-1.0159912109375,-0.3980712890625,0.13818359375,13.3056640625,-11.71875,-23.681640625
36851.475039333,-1.0159912109375,-0.3980712890625,0.13818359375,13.3056640625,-1.220703125,-23.681640625
36851.507710583,-0.829345703125,-0.3980712890625,0.13818359375,13.3056640625,-1.220703125,-23.681640625
36851.507799291,-0.829345703125,-0.3985595703125,0.13818359375,13.3056640625,-1.220703125,-23.681640625
36851.507872208,-0.829345703125,-0.3985595703125,0.0758056640625,13.3056640625,-1.220703125,-23.681640625
36851.507951875,-0.829345703125,-0.3985595703125,0.0758056640625,13.3056640625,4.21142578125,-23.681640625
36851.508021541,-0.829345703125,-0.3985595703125,0.0758056640625,13.3056640625,4.21142578125,-68.2373046875
36851.547568041,-0.5640869140625,-0.3985595703125,0.0758056640625,13.3056640625,4.21142578125,-68.2373046875
36851.549194833,-0.5640869140625,-0.1234130859375,0.0758056640625,13.3056640625,4.21142578125,-68.2373046875
36851.549420291,-0.5640869140625,-0.1234130859375,0.002197265625,13.3056640625,4.21142578125,-68.2373046875
36851.5495455,-0.5640869140625,-0.1234130859375,0.002197265625,-32.77587890625,4.21142578125,-68.2373046875
36851.574259,-0.61572265625,-0.1234130859375,0.002197265625,-32.77587890625,4.21142578125,-68.2373046875
36851.574352125,-0.61572265625,-0.050537109375,0.002197265625,-32.77587890625,4.21142578125,-68.2373046875
36851.574425291,-0.61572265625,-0.050537109375,0.1026611328125,-32.77587890625,4.21142578125,-68.2373046875
36851.592814083,-0.61572265625,-0.050537109375,0.1026611328125,-32.77587890625,-24.169921875,-68.2373046875
36851.592962375,-0.61572265625,-0.050537109375,0.1026611328125,-32.77587890625,-24.169921875,-54.01611328125
36851.593767916,-0.731201171875,-0.050537109375,0.1026611328125,-32.77587890625,-24.169921875,-54.01611328125
36851.593927958,-0.731201171875,0.0255126953125,0.1026611328125,-32.77587890625,-24.169921875,-54.01611328125
36851.607966625,-0.731201171875,0.0255126953125,0.1026611328125,-32.77587890625,-2.8076171875,-54.01611328125
36851.60813475,-0.731201171875,0.0255126953125,0.1026611328125,-32.77587890625,-2.8076171875,-12.3291015625
36851.637911166,-0.7186279296875,0.0255126953125,0.1026611328125,-32.77587890625,-2.8076171875,-12.3291015625
36851.638108583,-0.7186279296875,0.04345703125,0.1026611328125,-32.77587890625,-2.8076171875,-12.3291015625
36851.638825541,-0.7186279296875,0.04345703125,0.0531005859375,-32.77587890625,-2.8076171875,-12.3291015625
36851.653201125,-0.7186279296875,0.04345703125,0.0531005859375,-2.25830078125,-2.8076171875,-12.3291015625
36851.65341375,-0.816650390625,0.04345703125,0.0531005859375,-2.25830078125,-2.8076171875,-12.3291015625
36851.654668083,-0.816650390625,0.0155029296875,0.0531005859375,-2.25830078125,-2.8076171875,-12.3291015625
36851.654850875,-0.816650390625,0.0155029296875,0.0997314453125,-2.25830078125,-2.8076171875,-12.3291015625
36851.67385975,-0.816650390625,0.0155029296875,0.0997314453125,-2.25830078125,9.8876953125,-12.3291015625
36851.673959416,-0.816650390625,0.0155029296875,0.0997314453125,-2.25830078125,9.8876953125,26.3671875
36851.743731625,-0.8587646484375,0.0155029296875,0.0997314453125,-2.25830078125,9.8876953125,26.3671875
36851.7441525,-0.8587646484375,-0.0670166015625,0.0997314453125,-2.25830078125,9.8876953125,26.3671875
36851.744277041,-0.8587646484375,-0.0670166015625,0.0479736328125,-2.25830078125,9.8876953125,26.3671875
36851.744374041,-0.8587646484375,-0.0670166015625,0.0479736328125,14.83154296875,9.8876953125,26.3671875
36851.757932791,-0.808837890625,-0.0670166015625,0.0479736328125,14.83154296875,9.8876953125,26.3671875
36851.787116333,-0.808837890625,0.0057373046875,0.0479736328125,14.83154296875,9.8876953125,26.3671875
36851.803198875,-0.808837890625,0.0057373046875,0.1090087890625,14.83154296875,9.8876953125,26.3671875
36851.803384333,-0.808837890625,0.0057373046875,0.1090087890625,14.83154296875,17.02880859375,26.3671875
36851.804724458,-0.808837890625,0.0057373046875,0.1090087890625,14.83154296875,17.02880859375,36.68212890625
36851.804888666,-0.808837890625,0.0057373046875,0.0859375,14.83154296875,17.02880859375,36.68212890625
36851.824407791,-0.808837890625,0.0057373046875,0.0859375,14.83154296875,25.390625,36.68212890625
36851.824487,-0.808837890625,0.0057373046875,0.0859375,14.83154296875,25.390625,41.6259765625
36851.848228208,-0.9852294921875,0.0057373046875,0.0859375,14.83154296875,25.390625,41.6259765625
36851.848445208,-0.9852294921875,-0.0377197265625,0.0859375,14.83154296875,25.390625,41.6259765625
36851.848854458,-0.9852294921875,-0.0377197265625,0.162353515625,14.83154296875,25.390625,41.6259765625
36851.849043041,-0.9852294921875,-0.0377197265625,0.162353515625,10.07080078125,25.390625,41.6259765625
36851.8633135,-0.9833984375,-0.0377197265625,0.162353515625,10.07080078125,25.390625,41.6259765625
36851.863550083,-0.9833984375,-0.1611328125,0.162353515625,10.07080078125,25.390625,41.6259765625
36851.863677,-0.9833984375,-0.1611328125,0.17041015625,10.07080078125,25.390625,41.6259765625
36851.878374875,-0.9833984375,-0.1611328125,0.17041015625,10.07080078125,27.83203125,41.6259765625
36851.878570125,-0.9833984375,-0.1611328125,0.17041015625,10.07080078125,27.83203125,44.0673828125
36851.893116625,-0.95947265625,-0.1611328125,0.17041015625,10.07080078125,27.83203125,44.0673828125
36851.893351166,-0.95947265625,-0.187744140625,0.17041015625,10.07080078125,27.83203125,44.0673828125
36851.893477375,-0.95947265625,-0.187744140625,0.163330078125,10.07080078125,27.83203125,44.0673828125
36851.907886666,-0.95947265625,-0.187744140625,0.163330078125,10.07080078125,24.2919921875,44.0673828125
36851.924073208,-0.95947265625,-0.187744140625,0.163330078125,10.07080078125,24.2919921875,40.95458984375
36851.924153083,-0.9840087890625,-0.187744140625,0.163330078125,10.07080078125,24.2919921875,40.95458984375
36851.924224,-0.9840087890625,-0.1802978515625,0.163330078125,10.07080078125,24.2919921875,40.95458984375
36851.924374,-0.9840087890625,-0.1802978515625,0.264404296875,10.07080078125,24.2919921875,40.95458984375
36851.940546625,-0.9840087890625,-0.1802978515625,0.264404296875,10.07080078125,24.23095703125,40.95458984375
36851.940625541,-0.9840087890625,-0.1802978515625,0.264404296875,10.07080078125,24.23095703125,41.259765625
36851.957312125,-0.9464111328125,-0.1802978515625,0.264404296875,10.07080078125,24.23095703125,41.259765625
36851.957388125,-0.9464111328125,-0.2479248046875,0.264404296875,10.07080078125,24.23095703125,41.259765625
36851.957457916,-0.9464111328125,-0.2479248046875,0.2467041015625,10.07080078125,24.23095703125,41.259765625
36851.968110541,-0.9464111328125,-0.2479248046875,0.2467041015625,10.07080078125,21.78955078125,41.259765625
36851.97378225,-0.9464111328125,-0.2479248046875,0.2467041015625,10.07080078125,21.78955078125,39.6728515625
36852.043855041,-1.0152587890625,-0.2479248046875,0.2467041015625,10.07080078125,21.78955078125,39.6728515625
36852.059430333,-1.0152587890625,-0.2200927734375,0.2467041015625,10.07080078125,21.78955078125,39.6728515625
36852.059785541,-1.0152587890625,-0.2200927734375,0.2373046875,10.07080078125,21.78955078125,39.6728515625
36852.059884333,-1.0152587890625,-0.2200927734375,0.2373046875,22.216796875,21.78955078125,39.6728515625
36852.0599985,-0.8408203125,-0.2200927734375,0.2373046875,22.216796875,21.78955078125,39.6728515625
36852.07449625,-0.8408203125,-0.2200927734375,0.289794921875,22.216796875,21.78955078125,39.6728515625
36852.07459375,-0.8408203125,-0.2200927734375,0.289794921875,32.04345703125,21.78955078125,39.6728515625
36852.074679791,-0.8408203125,-0.2200927734375,0.289794921875,32.04345703125,7.4462890625,39.6728515625
36852.102216708,-0.9072265625,-0.2200927734375,0.289794921875,32.04345703125,7.4462890625,39.6728515625
36852.107676958,-0.9072265625,-0.3961181640625,0.289794921875,32.04345703125,7.4462890625,39.6728515625
36852.107769875,-0.9072265625,-0.3961181640625,0.26171875,32.04345703125,7.4462890625,39.6728515625
36852.107854083,-0.9072265625,-0.3961181640625,0.26171875,24.96337890625,7.4462890625,39.6728515625
36852.118165125,-0.9200439453125,-0.3961181640625,0.26171875,24.96337890625,7.4462890625,39.6728515625
36852.12405825,-0.9200439453125,-0.4427490234375,0.26171875,24.96337890625,7.4462890625,39.6728515625
36852.124204333,-0.9200439453125,-0.4427490234375,0.2115478515625,24.96337890625,7.4462890625,39.6728515625
36852.133264333,-0.9200439453125,-0.4427490234375,0.2115478515625,24.96337890625,9.033203125,39.6728515625
36852.13346025,-0.9200439453125,-0.4427490234375,0.2115478515625,24.96337890625,9.033203125,29.96826171875
36852.148236541,-0.953857421875,-0.4427490234375,0.2115478515625,24.96337890625,9.033203125,29.96826171875
36852.148490291,-0.953857421875,-0.4547119140625,0.2115478515625,24.96337890625,9.033203125,29.96826171875
36852.148618208,-0.953857421875,-0.4547119140625,0.250732421875,24.96337890625,9.033203125,29.96826171875
36852.163532166,-0.953857421875,-0.4547119140625,0.250732421875,24.96337890625,7.50732421875,29.96826171875
36852.163724458,-0.953857421875,-0.4547119140625,0.250732421875,24.96337890625,7.50732421875,21.97265625
36852.178187958,-0.9229736328125,-0.4547119140625,0.250732421875,24.96337890625,7.50732421875,21.97265625
36852.178390541,-0.9229736328125,-0.4945068359375,0.250732421875,24.96337890625,7.50732421875,21.97265625
36852.193452041,-0.9229736328125,-0.4945068359375,0.24658203125,24.96337890625,7.50732421875,21.97265625
36852.193566291,-0.9229736328125,-0.4945068359375,0.24658203125,24.96337890625,8.7890625,21.97265625
36852.194414333,-0.9229736328125,-0.4945068359375,0.24658203125,24.96337890625,8.7890625,14.404296875
36852.208011541,-0.957275390625,-0.4945068359375,0.24658203125,24.96337890625,8.7890625,14.404296875
36852.208277583,-0.957275390625,-0.495849609375,0.24658203125,24.96337890625,8.7890625,14.404296875
36852.208386208,-0.957275390625,-0.495849609375,0.2601318359375,24.96337890625,8.7890625,14.404296875
36852.237991875,-0.957275390625,-0.495849609375,0.2601318359375,24.96337890625,11.1083984375,14.404296875
36852.238174125,-0.957275390625,-0.495849609375,0.2601318359375,24.96337890625,11.1083984375,5.0048828125
36852.2389515,-1.009521484375,-0.495849609375,0.2601318359375,24.96337890625,11.1083984375,5.0048828125
36852.239118708,-1.009521484375,-0.5206298828125,0.2601318359375,24.96337890625,11.1083984375,5.0048828125
36852.25785825,-1.009521484375,-0.5206298828125,0.2601318359375,24.96337890625,13.97705078125,5.0048828125
36852.257955958,-1.009521484375,-0.5206298828125,0.2601318359375,24.96337890625,13.97705078125,-0.18310546875
36852.388827916,-0.9332275390625,-0.5206298828125,0.2601318359375,24.96337890625,13.97705078125,-0.18310546875
36852.389335958,-0.9332275390625,-0.487060546875,0.2601318359375,24.96337890625,13.97705078125,-0.18310546875
36852.417813833,-0.9332275390625,-0.487060546875,0.2589111328125,24.96337890625,13.97705078125,-0.18310546875
36852.423859458,-0.9332275390625,-0.487060546875,0.2589111328125,-5.67626953125,13.97705078125,-0.18310546875
36852.4239525,-0.93896484375,-0.487060546875,0.2589111328125,-5.67626953125,13.97705078125,-0.18310546875
36852.424037541,-0.93896484375,-0.447265625,0.2589111328125,-5.67626953125,13.97705078125,-0.18310546875
36852.447256958,-0.93896484375,-0.447265625,0.2589111328125,-8.544921875,13.97705078125,-0.18310546875
36852.463249,-0.93896484375,-0.447265625,0.2589111328125,-8.544921875,14.58740234375,-0.18310546875
36852.493187708,-0.93896484375,-0.447265625,0.2589111328125,-8.544921875,14.58740234375,-14.2822265625
36852.493443208,-1.015380859375,-0.447265625,0.2589111328125,-8.544921875,14.58740234375,-14.2822265625
36852.493752,-1.015380859375,-0.447265625,0.2589111328125,8.544921875,14.58740234375,-14.2822265625
36852.494006916,-1.015380859375,-0.447265625,0.2589111328125,8.544921875,14.58740234375,-11.8408203125
36852.523893125,-1.04150390625,-0.447265625,0.2589111328125,8.544921875,14.58740234375,-11.8408203125
36852.524081291,-1.04150390625,-0.4019775390625,0.2589111328125,8.544921875,14.58740234375,-11.8408203125
36852.524391083,-1.04150390625,-0.4019775390625,0.243896484375,8.544921875,14.58740234375,-11.8408203125
36852.524496125,-1.04150390625,-0.4019775390625,0.243896484375,8.544921875,1.89208984375,-11.8408203125
36852.582925458,-1.037109375,-0.4019775390625,0.243896484375,8.544921875,1.89208984375,-11.8408203125
36852.583143083,-1.037109375,-0.3809814453125,0.243896484375,8.544921875,1.89208984375,-11.8408203125
36852.657946458,-1.037109375,-0.3809814453125,0.2576904296875,8.544921875,1.89208984375,-11.8408203125
36852.658222083,-1.037109375,-0.3809814453125,0.2576904296875,8.544921875,1.28173828125,-11.8408203125
36852.674153791,-1.0037841796875,-0.3809814453125,0.2576904296875,8.544921875,1.28173828125,-11.8408203125
36852.6744045,-1.0037841796875,-0.383544921875,0.2576904296875,8.544921875,1.28173828125,-11.8408203125
NEW_REP,,,,,,
36852.690989125,-1.0037841796875,-0.383544921875,0.2576904296875,-2.62451171875,1.28173828125,-11.8408203125
36852.717683625,-1.0037841796875,-0.383544921875,0.2576904296875,-2.62451171875,1.953125,-11.8408203125
36852.724142041,-1.044189453125,-0.383544921875,0.2576904296875,-2.62451171875,1.953125,-11.8408203125
36852.733185208,-1.044189453125,-0.354248046875,0.2576904296875,-2.62451171875,1.953125,-11.8408203125
36852.7335225,-1.044189453125,-0.354248046875,0.3048095703125,-2.62451171875,1.953125,-11.8408203125
36852.733643208,-1.044189453125,-0.354248046875,0.3048095703125,-2.62451171875,1.953125,6.2255859375
36852.792695541,-1.1063232421875,-0.354248046875,0.3048095703125,-2.62451171875,1.953125,6.2255859375
36852.823305333,-1.1063232421875,-0.369873046875,0.3048095703125,-2.62451171875,1.953125,6.2255859375
36852.823544541,-1.1063232421875,-0.369873046875,0.302734375,-2.62451171875,1.953125,6.2255859375
36852.824270041,-1.1063232421875,-0.369873046875,0.302734375,-5.9814453125,1.953125,6.2255859375
36852.824483916,-1.110107421875,-0.369873046875,0.302734375,-5.9814453125,1.953125,6.2255859375
36852.868727541,-1.110107421875,-0.369873046875,0.31005859375,-5.9814453125,1.953125,6.2255859375
36852.869194375,-1.110107421875,-0.369873046875,0.31005859375,-6.2255859375,1.953125,6.2255859375
36852.869355125,-1.110107421875,-0.369873046875,0.31005859375,-6.2255859375,-11.41357421875,6.2255859375
36852.869447333,-1.1126708984375,-0.369873046875,0.31005859375,-6.2255859375,-11.41357421875,6.2255859375
36852.944225583,-1.1126708984375,-0.369873046875,0.31982421875,-6.2255859375,-11.41357421875,6.2255859375
36852.944583875,-1.1126708984375,-0.369873046875,0.31982421875,-5.126953125,-11.41357421875,6.2255859375
36852.973339916,-1.1126708984375,-0.369873046875,0.31982421875,-5.126953125,-10.43701171875,6.2255859375
36852.973570291,-1.10205078125,-0.369873046875,0.31982421875,-5.126953125,-10.43701171875,6.2255859375
36852.974055875,-1.10205078125,-0.4425048828125,0.31982421875,-5.126953125,-10.43701171875,6.2255859375
36852.974263,-1.10205078125,-0.4425048828125,0.3333740234375,-5.126953125,-10.43701171875,6.2255859375
36852.991349125,-1.10205078125,-0.4425048828125,0.3333740234375,-5.126953125,-12.3291015625,6.2255859375
36852.991456333,-1.10205078125,-0.4425048828125,0.3333740234375,-5.126953125,-12.3291015625,30.09033203125
36853.008371166,-0.8953857421875,-0.4425048828125,0.3333740234375,-5.126953125,-12.3291015625,30.09033203125
36853.00847,-0.8953857421875,-0.3203125,0.3333740234375,-5.126953125,-12.3291015625,30.09033203125
36853.008555,-0.8953857421875,-0.3203125,0.4859619140625,-5.126953125,-12.3291015625,30.09033203125
36853.03224325,-0.8953857421875,-0.3203125,0.4859619140625,-5.126953125,-28.62548828125,30.09033203125
36853.033867666,-0.8953857421875,-0.3203125,0.4859619140625,-5.126953125,-28.62548828125,9.521484375
36853.034109916,-0.9298095703125,-0.3203125,0.4859619140625,-5.126953125,-28.62548828125,9.521484375
36853.034242291,-0.9298095703125,-0.5570068359375,0.4859619140625,-5.126953125,-28.62548828125,9.521484375
36853.048350041,-0.9298095703125,-0.5570068359375,0.4859619140625,-5.126953125,-40.46630859375,9.521484375
36853.048549625,-0.9298095703125,-0.5570068359375,0.4859619140625,-5.126953125,-40.46630859375,2.44140625
36853.078164208,-0.892333984375,-0.5570068359375,0.4859619140625,-5.126953125,-40.46630859375,2.44140625
36853.078356583,-0.892333984375,-0.495849609375,0.4859619140625,-5.126953125,-40.46630859375,2.44140625
36853.08283875,-0.892333984375,-0.495849609375,0.23681640625,-5.126953125,-40.46630859375,2.44140625
36853.08292925,-0.892333984375,-0.495849609375,0.23681640625,-1.220703125,-40.46630859375,2.44140625
36853.093408916,-0.885986328125,-0.495849609375,0.23681640625,-1.220703125,-40.46630859375,2.44140625
36853.107372291,-0.885986328125,-0.3187255859375,0.23681640625,-1.220703125,-40.46630859375,2.44140625
36853.107474,-0.885986328125,-0.3187255859375,0.2694091796875,-1.220703125,-40.46630859375,2.44140625
36853.108017208,-0.885986328125,-0.3187255859375,0.2694091796875,-1.220703125,-45.0439453125,2.44140625
36853.108188708,-0.885986328125,-0.3187255859375,0.2694091796875,-1.220703125,-45.0439453125,-2.74658203125
36853.12452925,-0.9691162109375,-0.3187255859375,0.2694091796875,-1.220703125,-45.0439453125,-2.74658203125
36853.124606291,-0.9691162109375,-0.461181640625,0.2694091796875,-1.220703125,-45.0439453125,-2.74658203125
36853.124676791,-0.9691162109375,-0.461181640625,0.0164794921875,-1.220703125,-45.0439453125,-2.74658203125
36853.140458333,-0.9691162109375,-0.461181640625,0.0164794921875,-1.220703125,-36.19384765625,-2.74658203125
36853.140533708,-0.9691162109375,-0.461181640625,0.0164794921875,-1.220703125,-36.19384765625,-5.2490234375
36853.15743525,-0.89697265625,-0.461181640625,0.0164794921875,-1.220703125,-36.19384765625,-5.2490234375
36853.157513958,-0.89697265625,-0.3375244140625,0.0164794921875,-1.220703125,-36.19384765625,-5.2490234375
36853.157584708,-0.89697265625,-0.3375244140625,0.1524658203125,-1.220703125,-36.19384765625,-5.2490234375
36853.168336541,-0.89697265625,-0.3375244140625,0.1524658203125,-1.220703125,-29.23583984375,-5.2490234375
36853.173552541,-0.89697265625,-0.3375244140625,0.1524658203125,-1.220703125,-29.23583984375,-8.60595703125
36853.183243,-0.846435546875,-0.3375244140625,0.1524658203125,-1.220703125,-29.23583984375,-8.60595703125
36853.183505208,-0.846435546875,-0.365478515625,0.1524658203125,-1.220703125,-29.23583984375,-8.60595703125
36853.18361775,-0.846435546875,-0.365478515625,0.23193359375,-1.220703125,-29.23583984375,-8.60595703125
36853.244083541,-0.846435546875,-0.365478515625,0.23193359375,-1.220703125,-21.91162109375,-8.60595703125
36853.244449083,-0.846435546875,-0.365478515625,0.23193359375,-1.220703125,-21.91162109375,-16.6015625
36853.244575708,-0.94140625,-0.365478515625,0.23193359375,-1.220703125,-21.91162109375,-16.6015625
36853.258143083,-0.94140625,-0.365478515625,-0.0579833984375,-1.220703125,-21.91162109375,-16.6015625
36853.258326458,-0.94140625,-0.365478515625,-0.0579833984375,-20.751953125,-21.91162109375,-16.6015625
36853.274805416,-0.94140625,-0.365478515625,-0.0579833984375,-20.751953125,-16.17431640625,-16.6015625
36853.3033505,-0.8641357421875,-0.365478515625,-0.0579833984375,-20.751953125,-16.17431640625,-16.6015625
36853.30362075,-0.8641357421875,-0.3253173828125,-0.0579833984375,-20.751953125,-16.17431640625,-16.6015625
36853.303992333,-0.8641357421875,-0.3253173828125,0.0914306640625,-20.751953125,-16.17431640625,-16.6015625
36853.304260458,-0.8641357421875,-0.3253173828125,0.0914306640625,-20.751953125,-4.0283203125,-16.6015625
36853.332230916,-1.0426025390625,-0.3253173828125,0.0914306640625,-20.751953125,-4.0283203125,-16.6015625
36853.333544,-1.0426025390625,-0.441650390625,0.0914306640625,-20.751953125,-4.0283203125,-16.6015625
36853.37782875,-1.0426025390625,-0.441650390625,0.052734375,-20.751953125,-4.0283203125,-16.6015625
36853.378983291,-1.0426025390625,-0.441650390625,0.052734375,-32.53173828125,-4.0283203125,-16.6015625
36853.379305875,-1.06689453125,-0.441650390625,0.052734375,-32.53173828125,-4.0283203125,-16.6015625
36853.393724333,-1.06689453125,-0.376708984375,0.052734375,-32.53173828125,-4.0283203125,-16.6015625
36853.394026291,-1.06689453125,-0.376708984375,0.052734375,1.220703125,-4.0283203125,-16.6015625
36853.394309375,-1.06689453125,-0.376708984375,0.052734375,1.220703125,-1.52587890625,-16.6015625
36853.394447541,-1.06689453125,-0.376708984375,0.052734375,1.220703125,-1.52587890625,-46.08154296875
36853.453352416,-0.701904296875,-0.376708984375,0.052734375,1.220703125,-1.52587890625,-46.08154296875
36853.453561166,-0.701904296875,-0.3516845703125,0.052734375,1.220703125,-1.52587890625,-46.08154296875
36853.454231,-0.701904296875,-0.3516845703125,0.059326171875,1.220703125,-1.52587890625,-46.08154296875
36853.4544405,-0.701904296875,-0.3516845703125,0.059326171875,1.220703125,-4.7607421875,-46.08154296875
36853.473737583,-0.5634765625,-0.3516845703125,0.059326171875,1.220703125,-4.7607421875,-46.08154296875
36853.473814916,-0.5634765625,-0.1639404296875,0.059326171875,1.220703125,-4.7607421875,-46.08154296875
36853.473884,-0.5634765625,-0.1639404296875,0.0487060546875,1.220703125,-4.7607421875,-46.08154296875
36853.483292125,-0.5634765625,-0.1639404296875,0.0487060546875,1.220703125,-17.63916015625,-46.08154296875
36853.483429208,-0.5634765625,-0.1639404296875,0.0487060546875,1.220703125,-17.63916015625,-89.7216796875
36853.542347208,-0.4637451171875,-0.1639404296875,0.0487060546875,1.220703125,-17.63916015625,-89.7216796875
36853.558397416,-0.4637451171875,0.001708984375,0.0487060546875,1.220703125,-17.63916015625,-89.7216796875
36853.558706875,-0.4637451171875,0.001708984375,-0.0062255859375,1.220703125,-17.63916015625,-89.7216796875
36853.55886925,-0.4637451171875,0.001708984375,-0.0062255859375,1.220703125,-16.845703125,-89.7216796875
36853.559246833,-0.4637451171875,0.001708984375,-0.0062255859375,1.220703125,-16.845703125,-57.18994140625
36853.574546708,-0.6116943359375,0.001708984375,-0.0062255859375,1.220703125,-16.845703125,-57.18994140625
36853.574643791,-0.6116943359375,0.0306396484375,-0.0062255859375,1.220703125,-16.845703125,-57.18994140625
36853.57472925,-0.6116943359375,0.0306396484375,0.047607421875,1.220703125,-16.845703125,-57.18994140625
36853.591459166,-0.6116943359375,0.0306396484375,0.047607421875,1.220703125,3.0517578125,-57.18994140625
36853.591557458,-0.6116943359375,0.0306396484375,0.047607421875,1.220703125,3.0517578125,31.005859375
36853.607614416,-0.6805419921875,0.0306396484375,0.047607421875,1.220703125,3.0517578125,31.005859375
36853.624518666,-0.6805419921875,-0.0069580078125,0.047607421875,1.220703125,3.0517578125,31.005859375
36853.624611333,-0.6805419921875,-0.0069580078125,0.0299072265625,1.220703125,3.0517578125,31.005859375
36853.624698,-0.6805419921875,-0.0069580078125,0.0299072265625,1.220703125,15.19775390625,31.005859375
36853.624786166,-0.6805419921875,-0.0069580078125,0.0299072265625,1.220703125,15.19775390625,52.24609375
36853.633825625,-0.7216796875,-0.0069580078125,0.0299072265625,1.220703125,15.19775390625,52.24609375
36853.650471166,-0.7216796875,-0.0933837890625,0.0299072265625,1.220703125,15.19775390625,52.24609375
36853.67837,-0.7216796875,-0.0933837890625,0.055419921875,1.220703125,15.19775390625,52.24609375
36853.722967041,-0.7216796875,-0.0933837890625,0.055419921875,1.220703125,28.86962890625,52.24609375
36853.723314125,-0.7216796875,-0.0933837890625,0.055419921875,1.220703125,28.86962890625,66.7724609375
36853.723411166,-0.7218017578125,-0.0933837890625,0.055419921875,1.220703125,28.86962890625,66.7724609375
36853.729616208,-0.7218017578125,-0.0933837890625,0.055419921875,1.220703125,33.0810546875,66.7724609375
36853.738175666,-0.8111572265625,-0.0933837890625,0.055419921875,1.220703125,33.0810546875,66.7724609375
36853.738380916,-0.8111572265625,-0.2574462890625,0.055419921875,1.220703125,33.0810546875,66.7724609375
36853.739437291,-0.8111572265625,-0.2574462890625,0.073486328125,1.220703125,33.0810546875,66.7724609375
36853.75717775,-0.8111572265625,-0.2574462890625,0.073486328125,1.220703125,34.0576171875,66.7724609375
36853.757257583,-0.8111572265625,-0.2574462890625,0.073486328125,1.220703125,34.0576171875,58.837890625
36853.783183125,-0.8973388671875,-0.2574462890625,0.073486328125,1.220703125,34.0576171875,58.837890625
36853.783393708,-0.8973388671875,-0.34423828125,0.073486328125,1.220703125,34.0576171875,58.837890625
36853.784264166,-0.8973388671875,-0.34423828125,0.1646728515625,1.220703125,34.0576171875,58.837890625
36853.784453041,-0.8973388671875,-0.34423828125,0.1646728515625,6.04248046875,34.0576171875,58.837890625
36853.843765458,-0.940185546875,-0.34423828125,0.1646728515625,6.04248046875,34.0576171875,58.837890625
36853.844124916,-0.940185546875,-0.3359375,0.1646728515625,6.04248046875,34.0576171875,58.837890625
36853.844340625,-0.940185546875,-0.3359375,0.1600341796875,6.04248046875,34.0576171875,58.837890625
36853.858758,-0.940185546875,-0.3359375,0.1600341796875,6.04248046875,21.6064453125,58.837890625
36853.859029333,-0.940185546875,-0.3359375,0.1600341796875,6.04248046875,21.6064453125,37.4755859375
36853.902529291,-1.0579833984375,-0.3359375,0.1600341796875,6.04248046875,21.6064453125,37.4755859375
36853.932477666,-1.0579833984375,-0.2786865234375,0.1600341796875,6.04248046875,21.6064453125,37.4755859375
36853.934176125,-1.0579833984375,-0.2786865234375,0.3299560546875,6.04248046875,21.6064453125,37.4755859375
36853.934520333,-1.0579833984375,-0.2786865234375,0.3299560546875,-18.5546875,21.6064453125,37.4755859375
36853.934685166,-1.011474609375,-0.2786865234375,0.3299560546875,-18.5546875,21.6064453125,37.4755859375
36853.957120958,-1.011474609375,-0.2786865234375,0.2630615234375,-18.5546875,21.6064453125,37.4755859375
36853.957202541,-1.011474609375,-0.2786865234375,0.2630615234375,3.41796875,21.6064453125,37.4755859375
36853.957272875,-1.011474609375,-0.2786865234375,0.2630615234375,3.41796875,16.7236328125,37.4755859375
36853.993274791,-1.0050048828125,-0.2786865234375,0.2630615234375,3.41796875,16.7236328125,37.4755859375
36853.993475458,-1.0050048828125,-0.3411865234375,0.2630615234375,3.41796875,16.7236328125,37.4755859375
36853.994018666,-1.0050048828125,-0.3411865234375,0.3211669921875,3.41796875,16.7236328125,37.4755859375
36853.994107375,-1.0050048828125,-0.3411865234375,0.3211669921875,-45.22705078125,16.7236328125,37.4755859375
36854.00813225,-0.9791259765625,-0.3411865234375,0.3211669921875,-45.22705078125,16.7236328125,37.4755859375
36854.008278416,-0.9791259765625,-0.3778076171875,0.3211669921875,-45.22705078125,16.7236328125,37.4755859375
36854.024120208,-0.9791259765625,-0.3778076171875,0.2677001953125,-45.22705078125,16.7236328125,37.4755859375
36854.024199208,-0.9791259765625,-0.3778076171875,0.2677001953125,-45.22705078125,15.869140625,37.4755859375
36854.024269833,-0.9791259765625,-0.3778076171875,0.2677001953125,-45.22705078125,15.869140625,7.62939453125
36854.052856541,-1.007568359375,-0.3778076171875,0.2677001953125,-45.22705078125,15.869140625,7.62939453125
36854.054413833,-1.007568359375,-0.3489990234375,0.2677001953125,-45.22705078125,15.869140625,7.62939453125
36854.054600708,-1.007568359375,-0.3489990234375,0.382080078125,-45.22705078125,15.869140625,7.62939453125
36854.054708291,-1.007568359375,-0.3489990234375,0.382080078125,-40.52734375,15.869140625,7.62939453125
36854.083229166,-1.0440673828125,-0.3489990234375,0.382080078125,-40.52734375,15.869140625,7.62939453125
36854.083346666,-1.0440673828125,-0.3179931640625,0.382080078125,-40.52734375,15.869140625,7.62939453125
36854.084192458,-1.0440673828125,-0.3179931640625,0.40771484375,-40.52734375,15.869140625,7.62939453125
36854.084388125,-1.0440673828125,-0.3179931640625,0.40771484375,-4.21142578125,15.869140625,7.62939453125
36854.143449166,-0.976806640625,-0.3179931640625,0.40771484375,-4.21142578125,15.869140625,7.62939453125
36854.143700333,-0.976806640625,-0.40380859375,0.40771484375,-4.21142578125,15.869140625,7.62939453125
36854.14383675,-0.976806640625,-0.40380859375,0.4007568359375,-4.21142578125,15.869140625,7.62939453125
36854.173938333,-0.976806640625,-0.40380859375,0.4007568359375,-4.21142578125,26.0009765625,7.62939453125
36854.174010041,-0.976806640625,-0.40380859375,0.4007568359375,-4.21142578125,26.0009765625,1.953125
36854.190652875,-0.9122314453125,-0.40380859375,0.4007568359375,-4.21142578125,26.0009765625,1.953125
36854.190745875,-0.9122314453125,-0.289306640625,0.4007568359375,-4.21142578125,26.0009765625,1.953125
36854.190804875,-0.9122314453125,-0.289306640625,0.4296875,-4.21142578125,26.0009765625,1.953125
36854.190862916,-0.9122314453125,-0.289306640625,0.4296875,12.02392578125,26.0009765625,1.953125
36854.207148583,-0.94189453125,-0.289306640625,0.4296875,12.02392578125,26.0009765625,1.953125
36854.207242833,-0.94189453125,-0.33447265625,0.4296875,12.02392578125,26.0009765625,1.953125
36854.233115958,-0.94189453125,-0.33447265625,0.3966064453125,12.02392578125,26.0009765625,1.953125
36854.233288958,-0.94189453125,-0.33447265625,0.3966064453125,12.02392578125,17.2119140625,1.953125
36854.240175375,-0.94189453125,-0.33447265625,0.3966064453125,12.02392578125,17.2119140625,2.62451171875
36854.240246083,-0.9208984375,-0.33447265625,0.3966064453125,12.02392578125,17.2119140625,2.62451171875
36854.24871775,-0.9208984375,-0.33447265625,0.4320068359375,12.02392578125,17.2119140625,2.62451171875
36854.277742791,-0.9208984375,-0.33447265625,0.4320068359375,18.61572265625,17.2119140625,2.62451171875
36854.281411916,-0.9208984375,-0.33447265625,0.4320068359375,18.61572265625,15.68603515625,2.62451171875
36854.295831166,-0.870849609375,-0.33447265625,0.4320068359375,18.61572265625,15.68603515625,2.62451171875
36854.295941625,-0.870849609375,-0.31298828125,0.4320068359375,18.61572265625,15.68603515625,2.62451171875
36854.296012,-0.870849609375,-0.31298828125,0.4320068359375,18.61572265625,12.26806640625,2.62451171875
36854.296086166,-0.870849609375,-0.31298828125,0.4320068359375,18.61572265625,12.26806640625,0.54931640625
36854.36767875,-0.818115234375,-0.31298828125,0.4320068359375,18.61572265625,12.26806640625,0.54931640625
36854.373577291,-0.818115234375,-0.3143310546875,0.4320068359375,18.61572265625,12.26806640625,0.54931640625
36854.373676625,-0.818115234375,-0.3143310546875,0.4130859375,18.61572265625,12.26806640625,0.54931640625
36854.37377625,-0.818115234375,-0.3143310546875,0.4130859375,18.61572265625,7.26318359375,0.54931640625
36854.382934541,-0.845947265625,-0.3143310546875,0.4130859375,18.61572265625,7.26318359375,0.54931640625
36854.443535208,-0.845947265625,-0.375244140625,0.4130859375,18.61572265625,7.26318359375,0.54931640625
36854.443939375,-0.845947265625,-0.375244140625,0.37255859375,18.61572265625,7.26318359375,0.54931640625
36854.473281,-0.845947265625,-0.375244140625,0.37255859375,18.61572265625,5.18798828125,0.54931640625
36854.473514791,-0.845947265625,-0.375244140625,0.37255859375,18.61572265625,5.18798828125,2.44140625
36854.474087291,-0.845947265625,-0.4150390625,0.37255859375,18.61572265625,5.18798828125,2.44140625
36854.474296375,-0.845947265625,-0.4150390625,0.385498046875,18.61572265625,5.18798828125,2.44140625
36854.503328625,-0.845947265625,-0.4150390625,0.385498046875,18.61572265625,-4.94384765625,2.44140625
36854.50401425,-0.845947265625,-0.4150390625,0.385498046875,18.61572265625,-4.94384765625,0.30517578125
36854.532679916,-0.892578125,-0.4150390625,0.385498046875,18.61572265625,-4.94384765625,0.30517578125
36854.534517375,-0.892578125,-0.4140625,0.385498046875,18.61572265625,-4.94384765625,0.30517578125
36854.534807125,-0.892578125,-0.4140625,0.385498046875,18.61572265625,-6.04248046875,0.30517578125
36854.534907166,-0.892578125,-0.4140625,0.385498046875,18.61572265625,-6.04248046875,-4.69970703125
36854.562497,-0.892578125,-0.44921875,0.385498046875,18.61572265625,-6.04248046875,-4.69970703125
36854.57804225,-0.892578125,-0.44921875,0.2677001953125,18.61572265625,-6.04248046875,-4.69970703125
36854.607186,-0.892578125,-0.44921875,0.2677001953125,13.36669921875,-6.04248046875,-4.69970703125
NEW_REP,,,,,,
36854.623587916,-0.892578125,-0.44921875,0.2677001953125,13.36669921875,-6.04248046875,-7.87353515625
36854.6236705,-0.9053955078125,-0.44921875,0.2677001953125,13.36669921875,-6.04248046875,-7.87353515625
36854.623742333,-0.9053955078125,-0.44921875,0.2677001953125,-5.2490234375,-6.04248046875,-7.87353515625
36854.624113333,-0.9053955078125,-0.44921875,0.2677001953125,-5.2490234375,-6.04248046875,-13.97705078125
36854.65247225,-1.03173828125,-0.44921875,0.2677001953125,-5.2490234375,-6.04248046875,-13.97705078125
36854.683046375,-1.03173828125,-0.414794921875,0.2677001953125,-5.2490234375,-6.04248046875,-13.97705078125
36854.68325325,-1.03173828125,-0.414794921875,0.3472900390625,-5.2490234375,-6.04248046875,-13.97705078125
36854.74456525,-1.03173828125,-0.414794921875,0.3472900390625,8.23974609375,-6.04248046875,-13.97705078125
36854.745157166,-1.0634765625,-0.414794921875,0.3472900390625,8.23974609375,-6.04248046875,-13.97705078125
36854.74538,-1.0634765625,-0.414794921875,0.3519287109375,8.23974609375,-6.04248046875,-13.97705078125
36854.773887375,-1.0634765625,-0.414794921875,0.3519287109375,8.72802734375,-6.04248046875,-13.97705078125
36854.773967208,-1.0634765625,-0.414794921875,0.3519287109375,8.72802734375,-6.04248046875,-10.80322265625
36854.791166833,-1.1810302734375,-0.414794921875,0.3519287109375,8.72802734375,-6.04248046875,-10.80322265625
36854.791246916,-1.1810302734375,-0.44873046875,0.3519287109375,8.72802734375,-6.04248046875,-10.80322265625
36854.791318,-1.1810302734375,-0.44873046875,0.3316650390625,8.72802734375,-6.04248046875,-10.80322265625
36854.818263541,-1.1810302734375,-0.44873046875,0.3316650390625,8.72802734375,-17.39501953125,-10.80322265625
36854.824066958,-1.1810302734375,-0.44873046875,0.3316650390625,8.72802734375,-17.39501953125,13.916015625
36854.824203583,-1.1668701171875,-0.44873046875,0.3316650390625,8.72802734375,-17.39501953125,13.916015625
36854.824276666,-1.1668701171875,-0.4144287109375,0.3316650390625,8.72802734375,-17.39501953125,13.916015625
36854.833395666,-1.1668701171875,-0.4144287109375,0.3316650390625,8.72802734375,-19.53125,13.916015625
36854.833608541,-1.1668701171875,-0.4144287109375,0.3316650390625,8.72802734375,-19.53125,19.71435546875
36854.848365333,-1.1715087890625,-0.4144287109375,0.3316650390625,8.72802734375,-19.53125,19.71435546875
36854.848553958,-1.1715087890625,-0.4417724609375,0.3316650390625,8.72802734375,-19.53125,19.71435546875
36854.849500458,-1.1715087890625,-0.4417724609375,0.2882080078125,8.72802734375,-19.53125,19.71435546875
36854.863274416,-1.1715087890625,-0.4417724609375,0.2882080078125,8.72802734375,-21.54541015625,19.71435546875
36854.892075041,-1.1715087890625,-0.4417724609375,0.2882080078125,8.72802734375,-21.54541015625,21.91162109375
36854.893504333,-1.2911376953125,-0.4417724609375,0.2882080078125,8.72802734375,-21.54541015625,21.91162109375
36854.908127916,-1.2911376953125,-0.5006103515625,0.2882080078125,8.72802734375,-21.54541015625,21.91162109375
36854.953121291,-1.2911376953125,-0.5006103515625,0.38330078125,8.72802734375,-21.54541015625,21.91162109375
36854.954536333,-1.2911376953125,-0.5006103515625,0.38330078125,8.72802734375,-23.193359375,21.91162109375
36854.954815541,-1.2911376953125,-0.5006103515625,0.38330078125,8.72802734375,-23.193359375,28.99169921875
36854.954950208,-1.1806640625,-0.5006103515625,0.38330078125,8.72802734375,-23.193359375,28.99169921875
36854.983259125,-1.1806640625,-0.5006103515625,0.38330078125,-1.953125,-23.193359375,28.99169921875
36854.983432291,-1.1806640625,-0.5006103515625,0.38330078125,-1.953125,-16.357421875,28.99169921875
36854.990866416,-1.1806640625,-0.5006103515625,0.38330078125,-1.953125,-16.357421875,34.24072265625
36854.991048625,-0.8826904296875,-0.5006103515625,0.38330078125,-1.953125,-16.357421875,34.24072265625
36855.043359958,-0.8826904296875,-0.5006103515625,0.38330078125,-9.521484375,-16.357421875,34.24072265625
36855.043615625,-0.8826904296875,-0.5006103515625,0.38330078125,-9.521484375,-18.798828125,34.24072265625
36855.043744291,-0.8826904296875,-0.5006103515625,0.38330078125,-9.521484375,-18.798828125,17.02880859375
36855.103339541,-0.8826904296875,-0.460693359375,0.38330078125,-9.521484375,-18.798828125,17.02880859375
36855.103566375,-0.8826904296875,-0.460693359375,0.1466064453125,-9.521484375,-18.798828125,17.02880859375
36855.103974875,-0.8826904296875,-0.460693359375,0.1466064453125,-0.18310546875,-18.798828125,17.02880859375
36855.104185416,-0.8826904296875,-0.460693359375,0.1466064453125,-0.18310546875,-18.798828125,6.103515625
36855.123722875,-0.8826904296875,-0.3973388671875,0.1466064453125,-0.18310546875,-18.798828125,6.103515625
36855.147240166,-0.8826904296875,-0.3973388671875,0.1739501953125,-0.18310546875,-18.798828125,6.103515625
36855.163625208,-0.8826904296875,-0.3973388671875,0.1739501953125,0.42724609375,-18.798828125,6.103515625
36855.16379425,-0.8826904296875,-0.3973388671875,0.1739501953125,0.42724609375,-18.798828125,-12.3291015625
36855.164865458,-0.98095703125,-0.3973388671875,0.1739501953125,0.42724609375,-18.798828125,-12.3291015625
36855.165024833,-0.98095703125,-0.3973388671875,0.1739501953125,7.14111328125,-18.798828125,-12.3291015625
36855.178021791,-0.98095703125,-0.3973388671875,0.1739501953125,7.14111328125,-18.798828125,-23.5595703125
36855.222136083,-0.92236328125,-0.3973388671875,0.1739501953125,7.14111328125,-18.798828125,-23.5595703125
36855.226935416,-0.92236328125,-0.40283203125,0.1739501953125,7.14111328125,-18.798828125,-23.5595703125
36855.227029125,-0.92236328125,-0.40283203125,0.0665283203125,7.14111328125,-18.798828125,-23.5595703125
36855.252351125,-0.92236328125,-0.40283203125,0.0665283203125,7.14111328125,-7.38525390625,-23.5595703125
36855.268821625,-0.92236328125,-0.40283203125,0.0665283203125,7.14111328125,-7.38525390625,-43.27392578125
36855.27428525,-0.98095703125,-0.40283203125,0.0665283203125,7.14111328125,-7.38525390625,-43.27392578125
36855.274451083,-0.98095703125,-0.4547119140625,0.0665283203125,7.14111328125,-7.38525390625,-43.27392578125
36855.274593083,-0.98095703125,-0.4547119140625,0.0986328125,7.14111328125,-7.38525390625,-43.27392578125
36855.359433291,-0.6588134765625,-0.4547119140625,0.0986328125,7.14111328125,-7.38525390625,-43.27392578125
36855.389290666,-0.6588134765625,-0.2969970703125,0.0986328125,7.14111328125,-7.38525390625,-43.27392578125
36855.395674375,-0.6588134765625,-0.2969970703125,0.044189453125,7.14111328125,-7.38525390625,-43.27392578125
36855.395778875,-0.6588134765625,-0.2969970703125,0.044189453125,31.8603515625,-7.38525390625,-43.27392578125
36855.395915333,-0.418212890625,-0.2969970703125,0.044189453125,31.8603515625,-7.38525390625,-43.27392578125
36855.42434575,-0.418212890625,-0.2969970703125,0.145751953125,31.8603515625,-7.38525390625,-43.27392578125
36855.424437708,-0.418212890625,-0.2969970703125,0.145751953125,22.705078125,-7.38525390625,-43.27392578125
36855.424515333,-0.418212890625,-0.2969970703125,0.145751953125,22.705078125,-10.07080078125,-43.27392578125
36855.424584708,-0.6544189453125,-0.2969970703125,0.145751953125,22.705078125,-10.07080078125,-43.27392578125
36855.433497125,-0.6544189453125,-0.2969970703125,0.1097412109375,22.705078125,-10.07080078125,-43.27392578125
36855.433784291,-0.6544189453125,-0.2969970703125,0.1097412109375,-75.86669921875,-10.07080078125,-43.27392578125
36855.433927125,-0.6544189453125,-0.2969970703125,0.1097412109375,-75.86669921875,-15.5029296875,-43.27392578125
36855.524007291,-0.804931640625,-0.2969970703125,0.1097412109375,-75.86669921875,-15.5029296875,-43.27392578125
36855.539866291,-0.804931640625,-0.12890625,0.1097412109375,-75.86669921875,-15.5029296875,-43.27392578125
36855.567413708,-0.804931640625,-0.12890625,0.1134033203125,-75.86669921875,-15.5029296875,-43.27392578125
36855.5742575,-0.804931640625,-0.12890625,0.1134033203125,-51.1474609375,-15.5029296875,-43.27392578125
36855.574356125,-0.7862548828125,-0.12890625,0.1134033203125,-51.1474609375,-15.5029296875,-43.27392578125
36855.644560833,-0.7862548828125,-0.12890625,0.12255859375,-51.1474609375,-15.5029296875,-43.27392578125
36855.645041125,-0.7862548828125,-0.12890625,0.12255859375,-51.1474609375,8.48388671875,-43.27392578125
36855.65822375,-0.7862548828125,-0.12890625,0.12255859375,-51.1474609375,8.48388671875,42.29736328125
36855.658450958,-0.6917724609375,-0.12890625,0.12255859375,-51.1474609375,8.48388671875,42.29736328125
36855.675389,-0.6917724609375,-0.12890625,0.2518310546875,-51.1474609375,8.48388671875,42.29736328125
36855.67548475,-0.6917724609375,-0.12890625,0.2518310546875,-11.41357421875,8.48388671875,42.29736328125
36855.7343755,-0.6917724609375,-0.12890625,0.2518310546875,-11.41357421875,8.48388671875,58.9599609375
36855.734963166,-0.877197265625,-0.12890625,0.2518310546875,-11.41357421875,8.48388671875,58.9599609375
36855.735191666,-0.877197265625,-0.382568359375,0.2518310546875,-11.41357421875,8.48388671875,58.9599609375
36855.735338083,-0.877197265625,-0.382568359375,0.3043212890625,-11.41357421875,8.48388671875,58.9599609375
36855.749169916,-0.877197265625,-0.382568359375,0.3043212890625,-11.41357421875,24.7802734375,58.9599609375
36855.749457625,-0.877197265625,-0.382568359375,0.3043212890625,-11.41357421875,24.7802734375,46.142578125
36855.779465375,-0.8431396484375,-0.382568359375,0.3043212890625,-11.41357421875,24.7802734375,46.142578125
36855.785228583,-0.8431396484375,-0.3153076171875,0.3043212890625,-11.41357421875,24.7802734375,46.142578125
