Timestamp,Accel_X,Accel_Y,Accel_Z,Gyro_X,Gyro_Y,Gyro_Z
36646.334378708,-0.232421875,0.0,0.0,0.0,0.0,0.0
36646.373236291,-0.2318115234375,0.0,0.0,0.0,0.0,0.0
36646.373396416,-0.2318115234375,0.2666015625,0.0,0.0,0.0,0.0
36646.373480958,-0.2303466796875,0.2666015625,0.0,0.0,0.0,0.0
36646.374036333,-0.2303466796875,0.2618408203125,0.0,0.0,0.0,0.0
36646.418951625,-0.2247314453125,0.2618408203125,0.0,0.0,0.0,0.0
36646.419449375,-0.2247314453125,0.255859375,0.0,0.0,0.0,0.0
36646.419650583,-0.2247314453125,0.255859375,0.9129638671875,0.0,0.0,0.0
36646.419802916,-0.220703125,0.255859375,0.9129638671875,0.0,0.0,0.0
36646.447923375,-0.2198486328125,0.255859375,0.9129638671875,0.0,0.0,0.0
36646.449067166,-0.2198486328125,0.24658203125,0.9129638671875,0.0,0.0,0.0
36646.449241083,-0.2198486328125,0.24658203125,0.916015625,0.0,0.0,0.0
36646.468021291,-0.2198486328125,0.24658203125,0.916015625,2.3193359375,0.0,0.0
36646.494330583,-0.2252197265625,0.24658203125,0.916015625,2.3193359375,0.0,0.0
36646.494570625,-0.2252197265625,0.254638671875,0.916015625,2.3193359375,0.0,0.0
36646.494707041,-0.2252197265625,0.254638671875,0.91552734375,2.3193359375,0.0,0.0
36646.5082695,-0.227783203125,0.254638671875,0.91552734375,2.3193359375,0.0,0.0
36646.508475375,-0.227783203125,0.254638671875,0.91552734375,2.3193359375,0.0,0.0
36646.508579125,-0.227783203125,0.254638671875,0.9124755859375,2.3193359375,0.0,0.0
36646.523166208,-0.227783203125,0.254638671875,0.9124755859375,2.3193359375,-0.54931640625,0.0
36646.523327375,-0.227783203125,0.254638671875,0.9124755859375,2.3193359375,-0.54931640625,1.0986328125
36646.569070375,-0.2261962890625,0.254638671875,0.9124755859375,2.3193359375,-0.54931640625,1.0986328125
36646.569361208,-0.2261962890625,0.2587890625,0.9124755859375,2.3193359375,-0.54931640625,1.0986328125
36646.570415833,-0.2261962890625,0.2587890625,0.9151611328125,2.3193359375,-0.54931640625,1.0986328125
36646.57206725,-0.2261962890625,0.2587890625,0.9151611328125,2.5634765625,-0.54931640625,1.0986328125
36646.601304,-0.228759765625,0.2587890625,0.9151611328125,2.5634765625,-0.54931640625,1.0986328125
36646.601383083,-0.228759765625,0.255126953125,0.9151611328125,2.5634765625,-0.54931640625,1.0986328125
36646.601454166,-0.228759765625,0.255126953125,0.912841796875,2.5634765625,-0.54931640625,1.0986328125
36646.627214375,-0.228759765625,0.255126953125,0.912841796875,2.5634765625,-0.54931640625,1.15966796875
36646.643176166,-0.2288818359375,0.255126953125,0.912841796875,2.5634765625,-0.54931640625,1.15966796875
36646.643364125,-0.2288818359375,0.2576904296875,0.912841796875,2.5634765625,-0.54931640625,1.15966796875
36646.643469791,-0.2288818359375,0.2576904296875,0.9112548828125,2.5634765625,-0.54931640625,1.15966796875
36646.658127291,-0.2288818359375,0.2576904296875,0.9112548828125,2.5634765625,-0.54931640625,1.64794921875
36646.688058958,-0.2275390625,0.2576904296875,0.9112548828125,2.5634765625,-0.54931640625,1.64794921875
36646.688214,-0.2275390625,0.2510986328125,0.9112548828125,2.5634765625,-0.54931640625,1.64794921875
36646.691635666,-0.2275390625,0.2510986328125,0.912353515625,2.5634765625,-0.54931640625,1.64794921875
36646.691716291,-0.2275390625,0.2510986328125,0.912353515625,2.44140625,-0.54931640625,1.64794921875
36646.706502208,-0.222412109375,0.2510986328125,0.912353515625,2.44140625,-0.54931640625,1.64794921875
36646.7065975,-0.222412109375,0.248779296875,0.912353515625,2.44140625,-0.54931640625,1.64794921875
36646.706682125,-0.222412109375,0.248779296875,0.9163818359375,2.44140625,-0.54931640625,1.64794921875
36646.734346958,-0.222412109375,0.248779296875,0.9163818359375,2.44140625,-0.67138671875,1.64794921875
36646.734432166,-0.222412109375,0.248779296875,0.9163818359375,2.44140625,-0.67138671875,1.64794921875
36646.734526583,-0.219970703125,0.248779296875,0.9163818359375,2.44140625,-0.67138671875,1.64794921875
36646.734605708,-0.219970703125,0.254150390625,0.9163818359375,2.44140625,-0.67138671875,1.64794921875
36646.734676875,-0.219970703125,0.254150390625,0.913818359375,2.44140625,-0.67138671875,1.64794921875
36646.75129575,-0.219970703125,0.254150390625,0.913818359375,2.44140625,-0.67138671875,1.64794921875
36646.75137325,-0.219970703125,0.254150390625,0.913818359375,2.44140625,-0.67138671875,1.5869140625
36646.779410083,-0.220703125,0.254150390625,0.913818359375,2.44140625,-0.67138671875,1.5869140625
36646.782667125,-0.220703125,0.251220703125,0.913818359375,2.44140625,-0.67138671875,1.5869140625
36646.782886541,-0.220703125,0.251220703125,0.9151611328125,2.44140625,-0.67138671875,1.5869140625
36646.782979208,-0.220703125,0.251220703125,0.9151611328125,2.5634765625,-0.67138671875,1.5869140625
36646.800908416,-0.2259521484375,0.251220703125,0.9151611328125,2.5634765625,-0.67138671875,1.5869140625
36646.8009935,-0.2259521484375,0.247802734375,0.9151611328125,2.5634765625,-0.67138671875,1.5869140625
36646.809077958,-0.2259521484375,0.247802734375,0.919189453125,2.5634765625,-0.67138671875,1.5869140625
36646.80928575,-0.2259521484375,0.247802734375,0.919189453125,2.5634765625,-0.6103515625,1.5869140625
36646.809397708,-0.2259521484375,0.247802734375,0.919189453125,2.5634765625,-0.6103515625,1.46484375
36646.82319825,-0.2275390625,0.247802734375,0.919189453125,2.5634765625,-0.6103515625,1.46484375
36646.823379625,-0.2275390625,0.2509765625,0.919189453125,2.5634765625,-0.6103515625,1.46484375
36646.82347675,-0.2275390625,0.2509765625,0.91552734375,2.5634765625,-0.6103515625,1.46484375
36646.838156666,-0.2275390625,0.2509765625,0.91552734375,2.5634765625,-0.48828125,1.46484375
36646.838292833,-0.2275390625,0.2509765625,0.91552734375,2.5634765625,-0.48828125,1.03759765625
36646.869861125,-0.226806640625,0.2509765625,0.91552734375,2.5634765625,-0.48828125,1.03759765625
36646.870064625,-0.226806640625,0.25830078125,0.91552734375,2.5634765625,-0.48828125,1.03759765625
36646.870137166,-0.226806640625,0.25830078125,0.91552734375,2.5634765625,-0.48828125,1.03759765625
36646.898795833,-0.226806640625,0.25830078125,0.91552734375,2.5634765625,-0.18310546875,1.03759765625
36646.898957708,-0.226806640625,0.25830078125,0.91552734375,2.5634765625,-0.18310546875,1.64794921875
36646.913298416,-0.2298583984375,0.25830078125,0.91552734375,2.5634765625,-0.18310546875,1.64794921875
36646.9135035,-0.2298583984375,0.2576904296875,0.91552734375,2.5634765625,-0.18310546875,1.64794921875
36646.9136385,-0.2298583984375,0.2576904296875,0.911376953125,2.5634765625,-0.18310546875,1.64794921875
36646.933908958,-0.2298583984375,0.2576904296875,0.911376953125,2.5634765625,-0.18310546875,1.89208984375
36646.9580575,-0.227783203125,0.2576904296875,0.911376953125,2.5634765625,-0.18310546875,1.89208984375
36646.958197625,-0.227783203125,0.2569580078125,0.911376953125,2.5634765625,-0.18310546875,1.89208984375
36646.958730708,-0.227783203125,0.2569580078125,0.9158935546875,2.5634765625,-0.18310546875,1.89208984375
36646.958870041,-0.227783203125,0.2569580078125,0.9158935546875,1.708984375,-0.18310546875,1.89208984375
36646.973141625,-0.224365234375,0.2569580078125,0.9158935546875,1.708984375,-0.18310546875,1.89208984375
36646.973277833,-0.224365234375,0.25244140625,0.9158935546875,1.708984375,-0.18310546875,1.89208984375
36646.974152666,-0.224365234375,0.25244140625,0.9146728515625,1.708984375,-0.18310546875,1.89208984375
36646.98811925,-0.224365234375,0.25244140625,0.9146728515625,1.708984375,-0.06103515625,1.89208984375
36646.988294041,-0.224365234375,0.25244140625,0.9146728515625,1.708984375,-0.06103515625,2.62451171875
36647.0032565,-0.21728515625,0.25244140625,0.9146728515625,1.708984375,-0.06103515625,2.62451171875
36647.003428,-0.21728515625,0.24658203125,0.9146728515625,1.708984375,-0.06103515625,2.62451171875
36647.003521791,-0.21728515625,0.24658203125,0.91162109375,1.708984375,-0.06103515625,2.62451171875
36647.0179625,-0.21728515625,0.24658203125,0.91162109375,1.708984375,0.1220703125,2.62451171875
36647.018098125,-0.21728515625,0.24658203125,0.91162109375,1.708984375,0.1220703125,2.01416015625
36647.033640375,-0.2276611328125,0.24658203125,0.91162109375,1.708984375,0.1220703125,2.01416015625
36647.033937958,-0.2276611328125,0.224365234375,0.91162109375,1.708984375,0.1220703125,2.01416015625
36647.034000291,-0.2276611328125,0.224365234375,0.935546875,1.708984375,0.1220703125,2.01416015625
36647.050282333,-0.2276611328125,0.224365234375,0.935546875,1.708984375,0.3662109375,2.01416015625
36647.050347833,-0.2276611328125,0.224365234375,0.935546875,1.708984375,0.3662109375,2.62451171875
36647.093034291,-0.214599609375,0.224365234375,0.935546875,1.708984375,0.3662109375,2.62451171875
36647.094416583,-0.214599609375,0.2257080078125,0.935546875,1.708984375,0.3662109375,2.62451171875
36647.094604333,-0.214599609375,0.2257080078125,0.942138671875,1.708984375,0.3662109375,2.62451171875
36647.094709,-0.214599609375,0.2257080078125,0.942138671875,1.708984375,0.9765625,2.62451171875
36647.123072958,-0.239013671875,0.2257080078125,0.942138671875,1.708984375,0.9765625,2.62451171875
36647.123391416,-0.239013671875,0.279541015625,0.942138671875,1.708984375,0.9765625,2.62451171875
36647.125002,-0.239013671875,0.279541015625,0.91943359375,1.708984375,0.9765625,2.62451171875
36647.125170708,-0.239013671875,0.279541015625,0.91943359375,-6.8359375,0.9765625,2.62451171875
36647.139247833,-0.2332763671875,0.279541015625,0.91943359375,-6.8359375,0.9765625,2.62451171875
36647.139410083,-0.2332763671875,0.285400390625,0.91943359375,-6.8359375,0.9765625,2.62451171875
36647.139584708,-0.2332763671875,0.285400390625,0.939208984375,-6.8359375,0.9765625,2.62451171875
36647.169112416,-0.2332763671875,0.285400390625,0.939208984375,-6.8359375,-0.1220703125,2.62451171875
36647.169211791,-0.2332763671875,0.285400390625,0.939208984375,-6.8359375,-0.1220703125,2.99072265625
36647.197840541,-0.229248046875,0.285400390625,0.939208984375,-6.8359375,-0.1220703125,2.99072265625
36647.197957041,-0.229248046875,0.2535400390625,0.939208984375,-6.8359375,-0.1220703125,2.99072265625
36647.198018208,-0.229248046875,0.2535400390625,0.9691162109375,-6.8359375,-0.1220703125,2.99072265625
36647.212930333,-0.229248046875,0.2535400390625,0.9691162109375,-6.8359375,-0.1220703125,5.7373046875
36647.227919791,-0.239501953125,0.2535400390625,0.9691162109375,-6.8359375,-0.1220703125,5.7373046875
36647.2280165,-0.239501953125,0.2042236328125,0.9691162109375,-6.8359375,-0.1220703125,5.7373046875
36647.232707791,-0.239501953125,0.2042236328125,1.0577392578125,-6.8359375,-0.1220703125,5.7373046875
36647.2427285,-0.239501953125,0.2042236328125,1.0577392578125,-6.8359375,-8.1787109375,5.7373046875
36647.249488291,-0.239501953125,0.2042236328125,1.0577392578125,-6.8359375,-8.1787109375,10.1318359375
36647.257761666,-0.2984619140625,0.2042236328125,1.0577392578125,-6.8359375,-8.1787109375,10.1318359375
36647.257876375,-0.2984619140625,0.30224609375,1.0577392578125,-6.8359375,-8.1787109375,10.1318359375
36647.257941083,-0.2984619140625,0.30224609375,1.3226318359375,-6.8359375,-8.1787109375,10.1318359375
36647.2727675,-0.2984619140625,0.30224609375,1.3226318359375,-6.8359375,-29.84619140625,10.1318359375
36647.272856708,-0.2984619140625,0.30224609375,1.3226318359375,-6.8359375,-29.84619140625,14.404296875
36647.288024,-0.2154541015625,0.30224609375,1.3226318359375,-6.8359375,-29.84619140625,14.404296875
36647.288172208,-0.2154541015625,0.1851806640625,1.3226318359375,-6.8359375,-29.84619140625,14.404296875
36647.288240625,-0.2154541015625,0.1851806640625,1.3851318359375,-6.8359375,-29.84619140625,14.404296875
36647.302919625,-0.2154541015625,0.1851806640625,1.3851318359375,-6.8359375,-34.3017578125,14.404296875
36647.303010708,-0.2154541015625,0.1851806640625,1.3851318359375,-6.8359375,-34.3017578125,18.85986328125
36647.317726291,-0.3656005859375,0.1851806640625,1.3851318359375,-6.8359375,-34.3017578125,18.85986328125
36647.317848,-0.3656005859375,0.2083740234375,1.3851318359375,-6.8359375,-34.3017578125,18.85986328125
36647.317916,-0.3656005859375,0.2083740234375,1.3907470703125,-6.8359375,-34.3017578125,18.85986328125
36647.332824166,-0.3656005859375,0.2083740234375,1.3907470703125,-6.8359375,-54.8095703125,18.85986328125
36647.332871291,-0.3656005859375,0.2083740234375,1.3907470703125,-6.8359375,-54.8095703125,27.40478515625
36647.37676725,-0.350830078125,0.2083740234375,1.3907470703125,-6.8359375,-54.8095703125,27.40478515625
36647.377896208,-0.350830078125,0.263916015625,1.3907470703125,-6.8359375,-54.8095703125,27.40478515625
36647.37799225,-0.350830078125,0.263916015625,1.353759765625,-6.8359375,-54.8095703125,27.40478515625
36647.378887625,-0.350830078125,0.263916015625,1.353759765625,28.80859375,-54.8095703125,27.40478515625
36647.407922833,-0.355224609375,0.263916015625,1.353759765625,28.80859375,-54.8095703125,27.40478515625
36647.408065833,-0.355224609375,0.24072265625,1.353759765625,28.80859375,-54.8095703125,27.40478515625
36647.408754916,-0.355224609375,0.24072265625,1.2515869140625,28.80859375,-54.8095703125,27.40478515625
36647.408873791,-0.355224609375,0.24072265625,1.2515869140625,28.80859375,-84.8388671875,27.40478515625
36647.437870958,-0.4149169921875,0.24072265625,1.2515869140625,28.80859375,-84.8388671875,27.40478515625
36647.437994208,-0.4149169921875,0.224609375,1.2515869140625,28.80859375,-84.8388671875,27.40478515625
36647.438825125,-0.4149169921875,0.224609375,1.1239013671875,28.80859375,-84.8388671875,27.40478515625
36647.438930416,-0.4149169921875,0.224609375,1.1239013671875,60.85205078125,-84.8388671875,27.40478515625
36647.467065041,-0.4542236328125,0.224609375,1.1239013671875,60.85205078125,-84.8388671875,27.40478515625
36647.468711833,-0.4542236328125,0.20654296875,1.1239013671875,60.85205078125,-84.8388671875,27.40478515625
36647.498013083,-0.4542236328125,0.20654296875,1.037841796875,60.85205078125,-84.8388671875,27.40478515625
36647.498165625,-0.4542236328125,0.20654296875,1.037841796875,60.85205078125,-92.10205078125,27.40478515625
36647.517215125,-0.4542236328125,0.20654296875,1.037841796875,60.85205078125,-92.10205078125,55.419921875
36647.517285875,-0.5308837890625,0.20654296875,1.037841796875,60.85205078125,-92.10205078125,55.419921875
36647.517348333,-0.5308837890625,0.20654296875,0.9307861328125,60.85205078125,-92.10205078125,55.419921875
36647.517409041,-0.5308837890625,0.20654296875,0.9307861328125,93.994140625,-92.10205078125,55.419921875
36647.53402325,-0.58154296875,0.20654296875,0.9307861328125,93.994140625,-92.10205078125,55.419921875
36647.534111333,-0.58154296875,0.08544921875,0.9307861328125,93.994140625,-92.10205078125,55.419921875
36647.534172833,-0.58154296875,0.08544921875,0.87841796875,93.994140625,-92.10205078125,55.419921875
36647.544171291,-0.58154296875,0.08544921875,0.87841796875,93.994140625,-87.890625,55.419921875
36647.544234291,-0.58154296875,0.08544921875,0.87841796875,93.994140625,-87.890625,55.96923828125
36647.558745458,-0.6351318359375,0.08544921875,0.87841796875,93.994140625,-87.890625,55.96923828125
36647.573476625,-0.6351318359375,0.001220703125,0.87841796875,93.994140625,-87.890625,55.96923828125
36647.573675125,-0.6351318359375,0.001220703125,0.751953125,93.994140625,-87.890625,55.96923828125
36647.573741458,-0.6351318359375,0.001220703125,0.751953125,93.994140625,-85.02197265625,55.96923828125
36647.574042375,-0.6351318359375,0.001220703125,0.751953125,93.994140625,-85.02197265625,53.64990234375
36647.588310791,-0.66015625,0.001220703125,0.751953125,93.994140625,-85.02197265625,53.64990234375
36647.588496541,-0.66015625,-0.1026611328125,0.751953125,93.994140625,-85.02197265625,53.64990234375
36647.588592166,-0.66015625,-0.1026611328125,0.67041015625,93.994140625,-85.02197265625,53.64990234375
36647.603174166,-0.66015625,-0.1026611328125,0.67041015625,93.994140625,-81.4208984375,53.64990234375
36647.603309583,-0.66015625,-0.1026611328125,0.67041015625,93.994140625,-81.4208984375,49.74365234375
36647.63301025,-0.6832275390625,-0.1026611328125,0.67041015625,93.994140625,-81.4208984375,49.74365234375
36647.634535125,-0.6832275390625,-0.1666259765625,0.67041015625,93.994140625,-81.4208984375,49.74365234375
36647.634772833,-0.6832275390625,-0.1666259765625,0.6142578125,93.994140625,-81.4208984375,49.74365234375
36647.634973375,-0.6832275390625,-0.1666259765625,0.6142578125,93.994140625,-75.74462890625,49.74365234375
36647.65054025,-0.6790771484375,-0.1666259765625,0.6142578125,93.994140625,-75.74462890625,49.74365234375
36647.650608583,-0.6790771484375,-0.2166748046875,0.6142578125,93.994140625,-75.74462890625,49.74365234375
36647.650669333,-0.6790771484375,-0.2166748046875,0.4874267578125,93.994140625,-75.74462890625,49.74365234375
36647.667399125,-0.6790771484375,-0.2166748046875,0.4874267578125,93.994140625,-65.673828125,49.74365234375
36647.667464583,-0.6790771484375,-0.2166748046875,0.4874267578125,93.994140625,-65.673828125,29.72412109375
36647.678311625,-0.6719970703125,-0.2166748046875,0.4874267578125,93.994140625,-65.673828125,29.72412109375
36647.683544875,-0.6719970703125,-0.2427978515625,0.4874267578125,93.994140625,-65.673828125,29.72412109375
36647.683607083,-0.6719970703125,-0.2427978515625,0.4583740234375,93.994140625,-65.673828125,29.72412109375
36647.693111083,-0.6719970703125,-0.2427978515625,0.4583740234375,93.994140625,-60.791015625,29.72412109375
36647.693228791,-0.6719970703125,-0.2427978515625,0.4583740234375,93.994140625,-60.791015625,21.78955078125
36647.738654666,-0.6578369140625,-0.2427978515625,0.4583740234375,93.994140625,-60.791015625,21.78955078125
36647.738873541,-0.6578369140625,-0.2738037109375,0.4583740234375,93.994140625,-60.791015625,21.78955078125
36647.7389465,-0.6578369140625,-0.2738037109375,0.489501953125,93.994140625,-60.791015625,21.78955078125
36647.739107708,-0.6546630859375,-0.2738037109375,0.489501953125,93.994140625,-60.791015625,21.78955078125
36647.7685635,-0.6546630859375,-0.2738037109375,0.4473876953125,93.994140625,-60.791015625,21.78955078125
36647.814210416,-0.6546630859375,-0.2738037109375,0.4473876953125,66.83349609375,-60.791015625,21.78955078125
36647.814772666,-0.6546630859375,-0.2738037109375,0.4473876953125,66.83349609375,-41.07666015625,21.78955078125
36647.814929583,-0.6134033203125,-0.2738037109375,0.4473876953125,66.83349609375,-41.07666015625,21.78955078125
36647.815143583,-0.6134033203125,-0.261962890625,0.4473876953125,66.83349609375,-41.07666015625,21.78955078125
36647.843368,-0.6134033203125,-0.261962890625,0.4473876953125,71.533203125,-41.07666015625,21.78955078125
36647.844756625,-0.6134033203125,-0.261962890625,0.4473876953125,71.533203125,-36.31591796875,21.78955078125
36647.844934458,-0.6134033203125,-0.261962890625,0.4473876953125,71.533203125,-36.31591796875,-3.96728515625
36647.85822725,-0.6134033203125,-0.2750244140625,0.4473876953125,71.533203125,-36.31591796875,-3.96728515625
36647.858439458,-0.6134033203125,-0.2750244140625,0.4031982421875,71.533203125,-36.31591796875,-3.96728515625
36647.888639,-0.6134033203125,-0.2750244140625,0.4031982421875,80.01708984375,-36.31591796875,-3.96728515625
36647.888839666,-0.6134033203125,-0.2750244140625,0.4031982421875,80.01708984375,-36.31591796875,-18.9208984375
36647.901279333,-0.5909423828125,-0.2750244140625,0.4031982421875,80.01708984375,-36.31591796875,-18.9208984375
36647.901359625,-0.5909423828125,-0.3240966796875,0.4031982421875,80.01708984375,-36.31591796875,-18.9208984375
36647.9049315,-0.5909423828125,-0.3240966796875,0.4031982421875,79.4677734375,-36.31591796875,-18.9208984375
36647.90520225,-0.5909423828125,-0.3240966796875,0.4031982421875,79.4677734375,-37.29248046875,-18.9208984375
36647.905339875,-0.5909423828125,-0.3240966796875,0.4031982421875,79.4677734375,-37.29248046875,-28.99169921875
36647.933044083,-0.5828857421875,-0.3240966796875,0.4031982421875,79.4677734375,-37.29248046875,-28.99169921875
36647.934664,-0.5828857421875,-0.270751953125,0.4031982421875,79.4677734375,-37.29248046875,-28.99169921875
36647.934898916,-0.5828857421875,-0.270751953125,0.2529296875,79.4677734375,-37.29248046875,-28.99169921875
36647.935027458,-0.5828857421875,-0.270751953125,0.2529296875,66.58935546875,-37.29248046875,-28.99169921875
36647.962740416,-0.6015625,-0.270751953125,0.2529296875,66.58935546875,-37.29248046875,-28.99169921875
36647.964542083,-0.6015625,-0.2547607421875,0.2529296875,66.58935546875,-37.29248046875,-28.99169921875
36647.96480025,-0.6015625,-0.2547607421875,0.136962890625,66.58935546875,-37.29248046875,-28.99169921875
36647.96489075,-0.6015625,-0.2547607421875,0.136962890625,45.71533203125,-37.29248046875,-28.99169921875
36647.98431325,-0.570556640625,-0.2547607421875,0.136962890625,45.71533203125,-37.29248046875,-28.99169921875
36648.001264833,-0.570556640625,-0.19482421875,0.136962890625,45.71533203125,-37.29248046875,-28.99169921875
36648.001347666,-0.570556640625,-0.19482421875,0.0589599609375,45.71533203125,-37.29248046875,-28.99169921875
36648.008928958,-0.570556640625,-0.19482421875,0.0589599609375,45.71533203125,-53.89404296875,-28.99169921875
36648.024883833,-0.570556640625,-0.19482421875,0.0589599609375,45.71533203125,-53.89404296875,-35.888671875
36648.025119208,-0.5367431640625,-0.19482421875,0.0589599609375,45.71533203125,-53.89404296875,-35.888671875
36648.025230833,-0.5367431640625,-0.11572265625,0.0589599609375,45.71533203125,-53.89404296875,-35.888671875
36648.025379916,-0.5367431640625,-0.11572265625,0.0589599609375,45.71533203125,-53.5888671875,-35.888671875
36648.068766958,-0.6092529296875,-0.11572265625,0.0589599609375,45.71533203125,-53.5888671875,-35.888671875
36648.068971833,-0.6092529296875,-0.0911865234375,0.0589599609375,45.71533203125,-53.5888671875,-35.888671875
36648.070105583,-0.6092529296875,-0.0911865234375,-0.1171875,45.71533203125,-53.5888671875,-35.888671875
36648.07228925,-0.6092529296875,-0.0911865234375,-0.1171875,21.97265625,-53.5888671875,-35.888671875
36648.128335291,-0.6866455078125,-0.0911865234375,-0.1171875,21.97265625,-53.5888671875,-35.888671875
36648.128537416,-0.6866455078125,-0.0889892578125,-0.1171875,21.97265625,-53.5888671875,-35.888671875
36648.1289995,-0.6866455078125,-0.0889892578125,-0.1583251953125,21.97265625,-53.5888671875,-35.888671875
36648.129174083,-0.6866455078125,-0.0889892578125,-0.1583251953125,21.97265625,-37.841796875,-35.888671875
36648.142904166,-0.8583984375,-0.0889892578125,-0.1583251953125,21.97265625,-37.841796875,-35.888671875
36648.143173375,-0.8583984375,-0.0802001953125,-0.1583251953125,21.97265625,-37.841796875,-35.888671875
36648.143286041,-0.8583984375,-0.0802001953125,-0.1485595703125,21.97265625,-37.841796875,-35.888671875
36648.158400875,-0.8583984375,-0.0802001953125,-0.1485595703125,21.97265625,-3.173828125,-35.888671875
36648.158602708,-0.8583984375,-0.0802001953125,-0.1485595703125,21.97265625,-3.173828125,-9.8876953125
36648.188252,-1.0703125,-0.0802001953125,-0.1485595703125,21.97265625,-3.173828125,-9.8876953125
36648.188512291,-1.0703125,-0.267333984375,-0.1485595703125,21.97265625,-3.173828125,-9.8876953125
36648.203365416,-1.0703125,-0.267333984375,-0.12841796875,21.97265625,-3.173828125,-9.8876953125
36648.2036045,-1.0703125,-0.267333984375,-0.12841796875,29.96826171875,-3.173828125,-9.8876953125
36648.203732333,-1.1622314453125,-0.267333984375,-0.12841796875,29.96826171875,-3.173828125,-9.8876953125
36648.20398025,-1.1622314453125,-0.3568115234375,-0.12841796875,29.96826171875,-3.173828125,-9.8876953125
36648.232170791,-1.1622314453125,-0.3568115234375,-0.12841796875,13.427734375,-3.173828125,-9.8876953125
36648.233561833,-1.1622314453125,-0.3568115234375,-0.12841796875,13.427734375,23.98681640625,-9.8876953125
36648.278434125,-1.1622314453125,-0.3568115234375,-0.12841796875,13.427734375,23.98681640625,-1.03759765625
36648.278677583,-1.2784423828125,-0.3568115234375,-0.12841796875,13.427734375,23.98681640625,-1.03759765625
36648.279049916,-1.2784423828125,-0.4110107421875,-0.12841796875,13.427734375,23.98681640625,-1.03759765625
36648.279326916,-1.2784423828125,-0.4110107421875,-0.12841796875,13.427734375,23.98681640625,3.662109375
36648.308268708,-1.24267578125,-0.4110107421875,-0.12841796875,13.427734375,23.98681640625,3.662109375
36648.30846675,-1.24267578125,-0.4327392578125,-0.12841796875,13.427734375,23.98681640625,3.662109375
36648.308803583,-1.24267578125,-0.4327392578125,0.104736328125,13.427734375,23.98681640625,3.662109375
36648.309012041,-1.24267578125,-0.4327392578125,0.104736328125,13.427734375,23.98681640625,9.70458984375
36648.338205125,-1.1859130859375,-0.4327392578125,0.104736328125,13.427734375,23.98681640625,9.70458984375
36648.338405458,-1.1859130859375,-0.4443359375,0.104736328125,13.427734375,23.98681640625,9.70458984375
36648.338916791,-1.1859130859375,-0.4443359375,0.1224365234375,13.427734375,23.98681640625,9.70458984375
36648.339113958,-1.1859130859375,-0.4443359375,0.1224365234375,4.21142578125,23.98681640625,9.70458984375
36648.368416958,-1.1116943359375,-0.4443359375,0.1224365234375,4.21142578125,23.98681640625,9.70458984375
36648.368619083,-1.1116943359375,-0.384521484375,0.1224365234375,4.21142578125,23.98681640625,9.70458984375
36648.369095833,-1.1116943359375,-0.384521484375,0.174072265625,4.21142578125,23.98681640625,9.70458984375
36648.39793925,-1.1116943359375,-0.384521484375,0.174072265625,4.21142578125,21.91162109375,9.70458984375
36648.398137125,-1.1116943359375,-0.384521484375,0.174072265625,4.21142578125,21.91162109375,8.9111328125
36648.418052458,-0.960205078125,-0.384521484375,0.174072265625,4.21142578125,21.91162109375,8.9111328125
36648.418134041,-0.960205078125,-0.327392578125,0.174072265625,4.21142578125,21.91162109375,8.9111328125
36648.428367291,-0.960205078125,-0.327392578125,0.2261962890625,4.21142578125,21.91162109375,8.9111328125
36648.434937083,-0.960205078125,-0.327392578125,0.2261962890625,4.21142578125,21.91162109375,8.9111328125
36648.457294,-0.8892822265625,-0.327392578125,0.2261962890625,4.21142578125,21.91162109375,8.9111328125
36648.459111291,-0.8892822265625,-0.3564453125,0.2261962890625,4.21142578125,21.91162109375,8.9111328125
36648.459351625,-0.8892822265625,-0.3564453125,0.1883544921875,4.21142578125,21.91162109375,8.9111328125
36648.4594755,-0.8892822265625,-0.3564453125,0.1883544921875,4.21142578125,4.150390625,8.9111328125
36648.473284833,-0.8753662109375,-0.3564453125,0.1883544921875,4.21142578125,4.150390625,8.9111328125
36648.517373916,-0.8753662109375,-0.3157958984375,0.1883544921875,4.21142578125,4.150390625,8.9111328125
36648.534440833,-0.8753662109375,-0.3157958984375,0.207763671875,4.21142578125,4.150390625,8.9111328125
36648.534527041,-0.8753662109375,-0.3157958984375,0.207763671875,4.21142578125,-2.74658203125,8.9111328125
36648.551216375,-0.8753662109375,-0.3157958984375,0.207763671875,4.21142578125,-2.74658203125,2.44140625
36648.578275875,-0.8753662109375,-0.3079833984375,0.207763671875,4.21142578125,-2.74658203125,2.44140625
36648.584714208,-0.8753662109375,-0.3079833984375,0.2154541015625,4.21142578125,-2.74658203125,2.44140625
36648.584825375,-0.8753662109375,-0.3079833984375,0.2154541015625,-2.9296875,-2.74658203125,2.44140625
36648.58489775,-0.8753662109375,-0.3079833984375,0.2154541015625,-2.9296875,-2.74658203125,0.732421875
36648.593359166,-0.8753662109375,-0.321533203125,0.2154541015625,-2.9296875,-2.74658203125,0.732421875
36648.593567375,-0.8753662109375,-0.321533203125,0.200439453125,-2.9296875,-2.74658203125,0.732421875
36648.594379541,-0.8753662109375,-0.321533203125,0.200439453125,3.96728515625,-2.74658203125,0.732421875
36648.608203416,-0.8753662109375,-0.321533203125,0.200439453125,3.96728515625,-2.74658203125,-1.8310546875
36648.623552625,-0.9544677734375,-0.321533203125,0.200439453125,3.96728515625,-2.74658203125,-1.8310546875
36648.623770916,-0.9544677734375,-0.3419189453125,0.200439453125,3.96728515625,-2.74658203125,-1.8310546875
36648.623862125,-0.9544677734375,-0.3419189453125,0.162109375,3.96728515625,-2.74658203125,-1.8310546875
36648.638366666,-0.9544677734375,-0.3419189453125,0.162109375,3.96728515625,-11.3525390625,-1.8310546875
36648.638515541,-0.9544677734375,-0.3419189453125,0.162109375,3.96728515625,-11.3525390625,-2.38037109375
36648.714633625,-0.981201171875,-0.3419189453125,0.162109375,3.96728515625,-11.3525390625,-2.38037109375
36648.714949416,-0.981201171875,-0.3326416015625,0.162109375,3.96728515625,-11.3525390625,-2.38037109375
36648.715237291,-0.981201171875,-0.3326416015625,0.15478515625,3.96728515625,-11.3525390625,-2.38037109375
36648.715446875,-0.981201171875,-0.3326416015625,0.15478515625,3.96728515625,-10.986328125,-2.38037109375
36648.757830375,-0.9991455078125,-0.3326416015625,0.15478515625,3.96728515625,-10.986328125,-2.38037109375
36648.759422583,-0.9991455078125,-0.3489990234375,0.15478515625,3.96728515625,-10.986328125,-2.38037109375
36648.759741125,-0.9991455078125,-0.3489990234375,0.103515625,3.96728515625,-10.986328125,-2.38037109375
36648.759904375,-0.9991455078125,-0.3489990234375,0.103515625,3.96728515625,-6.77490234375,-2.38037109375
36648.803305625,-0.9984130859375,-0.3489990234375,0.103515625,3.96728515625,-6.77490234375,-2.38037109375
36648.803504291,-0.9984130859375,-0.293701171875,0.103515625,3.96728515625,-6.77490234375,-2.38037109375
36648.803728833,-0.9984130859375,-0.293701171875,0.1038818359375,3.96728515625,-6.77490234375,-2.38037109375
36648.80532075,-0.9984130859375,-0.293701171875,0.1038818359375,2.3193359375,-6.77490234375,-2.38037109375
36648.8181355,-0.97998046875,-0.293701171875,0.1038818359375,2.3193359375,-6.77490234375,-2.38037109375
36648.818356458,-0.97998046875,-0.3209228515625,0.1038818359375,2.3193359375,-6.77490234375,-2.38037109375
36648.892894333,-0.97998046875,-0.3209228515625,0.0889892578125,2.3193359375,-6.77490234375,-2.38037109375
36648.918106583,-0.97998046875,-0.3209228515625,0.0889892578125,0.06103515625,-6.77490234375,-2.38037109375
36648.91820425,-0.97998046875,-0.3209228515625,0.0889892578125,0.06103515625,-6.77490234375,2.99072265625
36648.91829025,-0.938232421875,-0.3209228515625,0.0889892578125,0.06103515625,-6.77490234375,2.99072265625
36648.918371041,-0.938232421875,-0.3209228515625,0.13330078125,0.06103515625,-6.77490234375,2.99072265625
36648.92332825,-0.938232421875,-0.3209228515625,0.13330078125,0.06103515625,9.21630859375,2.99072265625
36648.923505875,-0.938232421875,-0.3209228515625,0.13330078125,0.06103515625,9.21630859375,3.84521484375
36648.938167875,-0.9222412109375,-0.3209228515625,0.13330078125,0.06103515625,9.21630859375,3.84521484375
36648.938327333,-0.9222412109375,-0.3248291015625,0.13330078125,0.06103515625,9.21630859375,3.84521484375
36648.9393705,-0.9222412109375,-0.3248291015625,0.17431640625,0.06103515625,9.21630859375,3.84521484375
36648.968746166,-0.9222412109375,-0.3248291015625,0.17431640625,0.06103515625,2.197265625,3.84521484375
36648.968918583,-0.9222412109375,-0.3248291015625,0.17431640625,0.06103515625,2.197265625,2.9296875
36649.014168208,-0.923583984375,-0.3248291015625,0.17431640625,0.06103515625,2.197265625,2.9296875
36649.014616375,-0.923583984375,-0.3077392578125,0.17431640625,0.06103515625,2.197265625,2.9296875
36649.014800458,-0.923583984375,-0.3077392578125,0.197021484375,0.06103515625,2.197265625,2.9296875
36649.014926875,-0.923583984375,-0.3077392578125,0.197021484375,0.06103515625,2.197265625,2.38037109375
36649.0432395,-0.9395751953125,-0.3077392578125,0.197021484375,0.06103515625,2.197265625,2.38037109375
36649.043435833,-0.9395751953125,-0.332275390625,0.197021484375,0.06103515625,2.197265625,2.38037109375
36649.043920458,-0.9395751953125,-0.332275390625,0.181640625,0.06103515625,2.197265625,2.38037109375
36649.058487791,-0.9395751953125,-0.332275390625,0.181640625,-3.60107421875,2.197265625,2.38037109375
36649.058670041,-0.945556640625,-0.332275390625,0.181640625,-3.60107421875,2.197265625,2.38037109375
36649.059893166,-0.945556640625,-0.3221435546875,0.181640625,-3.60107421875,2.197265625,2.38037109375
36649.060080958,-0.945556640625,-0.3221435546875,0.18798828125,-3.60107421875,2.197265625,2.38037109375
36649.103384583,-0.945556640625,-0.3221435546875,0.18798828125,-3.60107421875,-0.06103515625,2.38037109375
36649.103675833,-0.945556640625,-0.3221435546875,0.18798828125,-3.60107421875,-0.06103515625,0.91552734375
36649.14813825,-0.9459228515625,-0.3221435546875,0.18798828125,-3.60107421875,-0.06103515625,0.91552734375
36649.148435041,-0.9459228515625,-0.315673828125,0.18798828125,-3.60107421875,-0.06103515625,0.91552734375
36649.148971833,-0.9459228515625,-0.315673828125,0.18798828125,-3.60107421875,2.197265625,0.91552734375
36649.1491385,-0.9459228515625,-0.315673828125,0.18798828125,-3.60107421875,2.197265625,0.67138671875
36649.178174125,-0.9459228515625,-0.3179931640625,0.18798828125,-3.60107421875,2.197265625,0.67138671875
36649.18426325,-0.9459228515625,-0.3179931640625,0.217041015625,-3.60107421875,2.197265625,0.67138671875
36649.184472375,-0.9459228515625,-0.3179931640625,0.217041015625,0.42724609375,2.197265625,0.67138671875
36649.207939125,-0.9459228515625,-0.3179931640625,0.217041015625,0.42724609375,2.197265625,0.30517578125
36649.209511833,-0.9476318359375,-0.3179931640625,0.217041015625,0.42724609375,2.197265625,0.30517578125
36649.209735708,-0.9476318359375,-0.30908203125,0.217041015625,0.42724609375,2.197265625,0.30517578125
36649.20984225,-0.9476318359375,-0.30908203125,0.2059326171875,0.42724609375,2.197265625,0.30517578125
36649.223178166,-0.9476318359375,-0.30908203125,0.2059326171875,0.42724609375,3.35693359375,0.30517578125
36649.25064975,-0.9476318359375,-0.30908203125,0.2059326171875,0.42724609375,3.35693359375,0.6103515625
36649.268629375,-0.951171875,-0.30908203125,0.2059326171875,0.42724609375,3.35693359375,0.6103515625
36649.270151,-0.951171875,-0.3074951171875,0.2059326171875,0.42724609375,3.35693359375,0.6103515625
36649.270287583,-0.951171875,-0.3074951171875,0.2127685546875,0.42724609375,3.35693359375,0.6103515625
36649.298161625,-0.951171875,-0.3074951171875,0.2127685546875,0.42724609375,4.0283203125,0.6103515625
36649.298291833,-0.951171875,-0.3074951171875,0.2127685546875,0.42724609375,4.0283203125,0.732421875
36649.313138833,-0.94677734375,-0.3074951171875,0.2127685546875,0.42724609375,4.0283203125,0.732421875
36649.313262833,-0.94677734375,-0.3046875,0.2127685546875,0.42724609375,4.0283203125,0.732421875
36649.314250625,-0.94677734375,-0.3046875,0.2271728515625,0.42724609375,4.0283203125,0.732421875
36649.333690708,-0.94677734375,-0.3046875,0.2271728515625,0.42724609375,4.0283203125,2.25830078125
36649.358005125,-0.9381103515625,-0.3046875,0.2271728515625,0.42724609375,4.0283203125,2.25830078125
36649.358143541,-0.9381103515625,-0.303955078125,0.2271728515625,0.42724609375,4.0283203125,2.25830078125
36649.35881425,-0.9381103515625,-0.303955078125,0.2301025390625,0.42724609375,4.0283203125,2.25830078125
36649.358919041,-0.9381103515625,-0.303955078125,0.2301025390625,4.2724609375,4.0283203125,2.25830078125
36649.402514125,-0.937255859375,-0.303955078125,0.2301025390625,4.2724609375,4.0283203125,2.25830078125
36649.418511083,-0.937255859375,-0.319580078125,0.2301025390625,4.2724609375,4.0283203125,2.25830078125
36649.418735583,-0.937255859375,-0.319580078125,0.211181640625,4.2724609375,4.0283203125,2.25830078125
36649.418830791,-0.937255859375,-0.319580078125,0.211181640625,4.2724609375,-4.0283203125,2.25830078125
36649.4191165,-0.927734375,-0.319580078125,0.211181640625,4.2724609375,-4.0283203125,2.25830078125
NEW_REP,,,,,,
36649.463713291,-0.927734375,-0.319580078125,0.1962890625,4.2724609375,-4.0283203125,2.25830078125
36649.4664665,-0.927734375,-0.319580078125,0.1962890625,-0.48828125,-4.0283203125,2.25830078125
36649.466689833,-0.927734375,-0.319580078125,0.1962890625,-0.48828125,-7.14111328125,2.25830078125
36649.466812041,-0.9234619140625,-0.319580078125,0.1962890625,-0.48828125,-7.14111328125,2.25830078125
36649.507007583,-0.9234619140625,-0.319580078125,0.1741943359375,-0.48828125,-7.14111328125,2.25830078125
36649.508038166,-0.9234619140625,-0.319580078125,0.1741943359375,-0.9765625,-7.14111328125,2.25830078125
36649.508183833,-0.9234619140625,-0.319580078125,0.1741943359375,-0.9765625,-7.6904296875,2.25830078125
36649.569829375,-0.935791015625,-0.319580078125,0.1741943359375,-0.9765625,-7.6904296875,2.25830078125
36649.570032958,-0.935791015625,-0.319580078125,0.1763916015625,-0.9765625,-7.6904296875,2.25830078125
36649.570401916,-0.935791015625,-0.319580078125,0.1763916015625,0.8544921875,-7.6904296875,2.25830078125
36649.570569458,-0.935791015625,-0.319580078125,0.1763916015625,0.8544921875,-3.47900390625,2.25830078125
36649.60096925,-0.9490966796875,-0.319580078125,0.1763916015625,0.8544921875,-3.47900390625,2.25830078125
36649.601041625,-0.9490966796875,-0.314208984375,0.1763916015625,0.8544921875,-3.47900390625,2.25830078125
36649.601103666,-0.9490966796875,-0.314208984375,0.1983642578125,0.8544921875,-3.47900390625,2.25830078125
36649.657389166,-0.9490966796875,-0.314208984375,0.1983642578125,0.8544921875,-0.54931640625,2.25830078125
36649.659515291,-0.9490966796875,-0.314208984375,0.1983642578125,0.8544921875,-0.54931640625,-0.30517578125
36649.659772666,-1.0274658203125,-0.314208984375,0.1983642578125,0.8544921875,-0.54931640625,-0.30517578125
36649.659933708,-1.0274658203125,-0.3270263671875,0.1983642578125,0.8544921875,-0.54931640625,-0.30517578125
36649.688124583,-1.0274658203125,-0.3270263671875,0.1983642578125,0.8544921875,-6.77490234375,-0.30517578125
36649.692045333,-1.0274658203125,-0.3270263671875,0.1983642578125,0.8544921875,-6.77490234375,1.5869140625
36649.692115416,-1.10546875,-0.3270263671875,0.1983642578125,0.8544921875,-6.77490234375,1.5869140625
36649.718495333,-1.10546875,-0.3270263671875,0.1982421875,0.8544921875,-6.77490234375,1.5869140625
36649.71857825,-1.10546875,-0.3270263671875,0.1982421875,2.0751953125,-6.77490234375,1.5869140625
36649.718653166,-1.10546875,-0.3270263671875,0.1982421875,2.0751953125,-6.4697265625,1.5869140625
36649.718722583,-1.066650390625,-0.3270263671875,0.1982421875,2.0751953125,-6.4697265625,1.5869140625
36649.718789458,-1.066650390625,-0.331787109375,0.1982421875,2.0751953125,-6.4697265625,1.5869140625
36649.718855166,-1.066650390625,-0.331787109375,0.1968994140625,2.0751953125,-6.4697265625,1.5869140625
36649.747993833,-1.066650390625,-0.331787109375,0.1968994140625,2.0751953125,-4.45556640625,1.5869140625
36649.748180541,-1.066650390625,-0.331787109375,0.1968994140625,2.0751953125,-4.45556640625,14.2822265625
36649.768225958,-1.1033935546875,-0.331787109375,0.1968994140625,2.0751953125,-4.45556640625,14.2822265625
36649.76830625,-1.1033935546875,-0.3760986328125,0.1968994140625,2.0751953125,-4.45556640625,14.2822265625
36649.768376541,-1.1033935546875,-0.3760986328125,0.1717529296875,2.0751953125,-4.45556640625,14.2822265625
36649.808277083,-1.137451171875,-0.3760986328125,0.1717529296875,2.0751953125,-4.45556640625,14.2822265625
36649.808477666,-1.137451171875,-0.3751220703125,0.1717529296875,2.0751953125,-4.45556640625,14.2822265625
36649.808991208,-1.137451171875,-0.3751220703125,0.177001953125,2.0751953125,-4.45556640625,14.2822265625
36649.809161083,-1.137451171875,-0.3751220703125,0.177001953125,6.04248046875,-4.45556640625,14.2822265625
36649.870090541,-1.15673828125,-0.3751220703125,0.177001953125,6.04248046875,-4.45556640625,14.2822265625
36649.877537,-1.15673828125,-0.4046630859375,0.177001953125,6.04248046875,-4.45556640625,14.2822265625
36649.877710333,-1.15673828125,-0.4046630859375,0.156005859375,6.04248046875,-4.45556640625,14.2822265625
36649.877821416,-1.15673828125,-0.4046630859375,0.156005859375,6.04248046875,-8.48388671875,14.2822265625
36649.928012333,-1.1478271484375,-0.4046630859375,0.156005859375,6.04248046875,-8.48388671875,14.2822265625
36649.929426916,-1.1478271484375,-0.46630859375,0.156005859375,6.04248046875,-8.48388671875,14.2822265625
36649.929869916,-1.1478271484375,-0.46630859375,0.11376953125,6.04248046875,-8.48388671875,14.2822265625
36649.930126,-1.1478271484375,-0.46630859375,0.11376953125,6.04248046875,-9.21630859375,14.2822265625
36649.952032375,-1.1005859375,-0.46630859375,0.11376953125,6.04248046875,-9.21630859375,14.2822265625
36649.952129291,-1.1005859375,-0.453857421875,0.11376953125,6.04248046875,-9.21630859375,14.2822265625
36649.952214458,-1.1005859375,-0.453857421875,0.075927734375,6.04248046875,-9.21630859375,14.2822265625
36649.973293083,-1.1005859375,-0.453857421875,0.075927734375,6.04248046875,-3.72314453125,14.2822265625
36649.97349625,-1.1005859375,-0.453857421875,0.075927734375,6.04248046875,-3.72314453125,10.25390625
36649.974120416,-1.087646484375,-0.453857421875,0.075927734375,6.04248046875,-3.72314453125,10.25390625
36649.974339416,-1.087646484375,-0.4468994140625,0.075927734375,6.04248046875,-3.72314453125,10.25390625
36649.988406791,-1.087646484375,-0.4468994140625,0.075927734375,6.04248046875,2.74658203125,10.25390625
36649.988619125,-1.087646484375,-0.4468994140625,0.075927734375,6.04248046875,2.74658203125,5.2490234375
36650.033808625,-1.0125732421875,-0.4468994140625,0.075927734375,6.04248046875,2.74658203125,5.2490234375
36650.034244166,-1.0125732421875,-0.3212890625,0.075927734375,6.04248046875,2.74658203125,5.2490234375
36650.034426333,-1.0125732421875,-0.3212890625,0.1021728515625,6.04248046875,2.74658203125,5.2490234375
36650.034547541,-1.0125732421875,-0.3212890625,0.1021728515625,4.82177734375,2.74658203125,5.2490234375
36650.062390083,-1.0257568359375,-0.3212890625,0.1021728515625,4.82177734375,2.74658203125,5.2490234375
36650.068528333,-1.0257568359375,-0.3199462890625,0.1021728515625,4.82177734375,2.74658203125,5.2490234375
36650.0686055,-1.0257568359375,-0.3199462890625,0.09619140625,4.82177734375,2.74658203125,5.2490234375
36650.068675708,-1.0257568359375,-0.3199462890625,0.09619140625,4.82177734375,9.3994140625,5.2490234375
36650.0922385,-0.9669189453125,-0.3199462890625,0.09619140625,4.82177734375,9.3994140625,5.2490234375
36650.093978916,-0.9669189453125,-0.249267578125,0.09619140625,4.82177734375,9.3994140625,5.2490234375
36650.094241291,-0.9669189453125,-0.249267578125,0.1358642578125,4.82177734375,9.3994140625,5.2490234375
36650.094351625,-0.9669189453125,-0.249267578125,0.1358642578125,9.82666015625,9.3994140625,5.2490234375
36650.108602083,-0.9324951171875,-0.249267578125,0.1358642578125,9.82666015625,9.3994140625,5.2490234375
36650.108776875,-0.9324951171875,-0.224609375,0.1358642578125,9.82666015625,9.3994140625,5.2490234375
36650.109521916,-0.9324951171875,-0.224609375,0.1407470703125,9.82666015625,9.3994140625,5.2490234375
36650.123365333,-0.9324951171875,-0.224609375,0.1407470703125,9.82666015625,17.15087890625,5.2490234375
36650.123516958,-0.9324951171875,-0.224609375,0.1407470703125,9.82666015625,17.15087890625,-7.32421875
36650.168720291,-0.8870849609375,-0.224609375,0.1407470703125,9.82666015625,17.15087890625,-7.32421875
36650.168958958,-0.8870849609375,-0.2469482421875,0.1407470703125,9.82666015625,17.15087890625,-7.32421875
36650.169537375,-0.8870849609375,-0.2469482421875,0.1551513671875,9.82666015625,17.15087890625,-7.32421875
36650.171959375,-0.8870849609375,-0.2469482421875,0.1551513671875,26.55029296875,17.15087890625,-7.32421875
36650.258978958,-0.9100341796875,-0.2469482421875,0.1551513671875,26.55029296875,17.15087890625,-7.32421875
36650.259421375,-0.9100341796875,-0.292236328125,0.1551513671875,26.55029296875,17.15087890625,-7.32421875
36650.259593208,-0.9100341796875,-0.292236328125,0.1683349609375,26.55029296875,17.15087890625,-7.32421875
36650.259723,-0.9100341796875,-0.292236328125,0.1683349609375,26.55029296875,19.8974609375,-7.32421875
36650.287991458,-0.85400390625,-0.292236328125,0.1683349609375,26.55029296875,19.8974609375,-7.32421875
36650.289591458,-0.85400390625,-0.3419189453125,0.1683349609375,26.55029296875,19.8974609375,-7.32421875
36650.289875291,-0.85400390625,-0.3419189453125,0.2176513671875,26.55029296875,19.8974609375,-7.32421875
36650.29000075,-0.85400390625,-0.3419189453125,0.2176513671875,26.55029296875,20.751953125,-7.32421875
36650.332357916,-0.8939208984375,-0.3419189453125,0.2176513671875,26.55029296875,20.751953125,-7.32421875
36650.334058041,-0.8939208984375,-0.3157958984375,0.2176513671875,26.55029296875,20.751953125,-7.32421875
36650.334270708,-0.8939208984375,-0.3157958984375,0.1910400390625,26.55029296875,20.751953125,-7.32421875
36650.348587,-0.8939208984375,-0.3157958984375,0.1910400390625,26.55029296875,18.49365234375,-7.32421875
36650.348911125,-0.861083984375,-0.3157958984375,0.1910400390625,26.55029296875,18.49365234375,-7.32421875
36650.349091125,-0.861083984375,-0.26708984375,0.1910400390625,26.55029296875,18.49365234375,-7.32421875
36650.349331916,-0.861083984375,-0.26708984375,0.14453125,26.55029296875,18.49365234375,-7.32421875
36650.368027875,-0.861083984375,-0.26708984375,0.14453125,26.55029296875,21.78955078125,-7.32421875
36650.36810975,-0.861083984375,-0.26708984375,0.14453125,26.55029296875,21.78955078125,-32.77587890625
36650.378352916,-0.8468017578125,-0.26708984375,0.14453125,26.55029296875,21.78955078125,-32.77587890625
36650.384958958,-0.8468017578125,-0.3330078125,0.14453125,26.55029296875,21.78955078125,-32.77587890625
36650.385057416,-0.8468017578125,-0.3330078125,0.22412109375,26.55029296875,21.78955078125,-32.77587890625
36650.4074895,-0.8468017578125,-0.3330078125,0.22412109375,26.55029296875,21.6064453125,-32.77587890625
36650.408631625,-0.8468017578125,-0.3330078125,0.22412109375,26.55029296875,21.6064453125,-32.71484375
36650.423267666,-0.755859375,-0.3330078125,0.22412109375,26.55029296875,21.6064453125,-32.71484375
36650.438402416,-0.755859375,-0.1800537109375,0.22412109375,26.55029296875,21.6064453125,-32.71484375
36650.438629083,-0.755859375,-0.1800537109375,0.23486328125,26.55029296875,21.6064453125,-32.71484375
36650.438758583,-0.755859375,-0.1800537109375,0.23486328125,26.55029296875,21.6064453125,-36.56005859375
36650.468820708,-0.664306640625,-0.1800537109375,0.23486328125,26.55029296875,21.6064453125,-36.56005859375
36650.469016541,-0.664306640625,-0.22314453125,0.23486328125,26.55029296875,21.6064453125,-36.56005859375
36650.469754916,-0.664306640625,-0.22314453125,0.2930908203125,26.55029296875,21.6064453125,-36.56005859375
36650.514523958,-0.664306640625,-0.22314453125,0.2930908203125,26.55029296875,28.076171875,-36.56005859375
36650.514885833,-0.664306640625,-0.22314453125,0.2930908203125,26.55029296875,28.076171875,-35.2783203125
36650.515061958,-0.609619140625,-0.22314453125,0.2930908203125,26.55029296875,28.076171875,-35.2783203125
36650.542304541,-0.609619140625,-0.22314453125,0.2525634765625,26.55029296875,28.076171875,-35.2783203125
36650.544262166,-0.609619140625,-0.22314453125,0.2525634765625,26.55029296875,13.916015625,-35.2783203125
36650.544515416,-0.609619140625,-0.22314453125,0.2525634765625,26.55029296875,13.916015625,-21.97265625
36650.544604708,-0.590576171875,-0.22314453125,0.2525634765625,26.55029296875,13.916015625,-21.97265625
36650.558488333,-0.590576171875,-0.22314453125,0.299072265625,26.55029296875,13.916015625,-21.97265625
36650.558741083,-0.590576171875,-0.22314453125,0.299072265625,-4.08935546875,13.916015625,-21.97265625
36650.55886625,-0.590576171875,-0.22314453125,0.299072265625,-4.08935546875,-4.0283203125,-21.97265625
36650.574839791,-0.6044921875,-0.22314453125,0.299072265625,-4.08935546875,-4.0283203125,-21.97265625
36650.575043083,-0.6044921875,-0.4140625,0.299072265625,-4.08935546875,-4.0283203125,-21.97265625
36650.57605625,-0.6044921875,-0.4140625,0.3148193359375,-4.08935546875,-4.0283203125,-21.97265625
36650.604419208,-0.6044921875,-0.4140625,0.3148193359375,-4.08935546875,-13.671875,-21.97265625
36650.6046785,-0.6044921875,-0.4140625,0.3148193359375,-4.08935546875,-13.671875,-5.2490234375
36650.605350958,-0.572998046875,-0.4140625,0.3148193359375,-4.08935546875,-13.671875,-5.2490234375
36650.6333745,-0.572998046875,-0.4140625,0.3155517578125,-4.08935546875,-13.671875,-5.2490234375
36650.633569625,-0.572998046875,-0.4140625,0.3155517578125,-7.568359375,-13.671875,-5.2490234375
36650.633914916,-0.572998046875,-0.4140625,0.3155517578125,-7.568359375,-24.84130859375,-5.2490234375
36650.678788416,-0.6077880859375,-0.4140625,0.3155517578125,-7.568359375,-24.84130859375,-5.2490234375
36650.679047708,-0.6077880859375,-0.4688720703125,0.3155517578125,-7.568359375,-24.84130859375,-5.2490234375
36650.693541208,-0.6077880859375,-0.4688720703125,0.2037353515625,-7.568359375,-24.84130859375,-5.2490234375
36650.694023166,-0.6077880859375,-0.4688720703125,0.2037353515625,-7.568359375,-24.84130859375,33.75244140625
36650.694152708,-0.6077880859375,-0.4019775390625,0.2037353515625,-7.568359375,-24.84130859375,33.75244140625
36650.694385708,-0.6077880859375,-0.4019775390625,0.222900390625,-7.568359375,-24.84130859375,33.75244140625
36650.71866375,-0.6077880859375,-0.4019775390625,0.222900390625,-7.568359375,-26.79443359375,33.75244140625
36650.718742458,-0.6077880859375,-0.4019775390625,0.222900390625,-7.568359375,-26.79443359375,38.57421875
36650.737004583,-0.723388671875,-0.4019775390625,0.222900390625,-7.568359375,-26.79443359375,38.57421875
36650.739052708,-0.723388671875,-0.3818359375,0.222900390625,-7.568359375,-26.79443359375,38.57421875
36650.739296416,-0.723388671875,-0.3818359375,0.1177978515625,-7.568359375,-26.79443359375,38.57421875
36650.739423291,-0.723388671875,-0.3818359375,0.1177978515625,-7.568359375,-23.25439453125,38.57421875
36650.76733775,-0.790283203125,-0.3818359375,0.1177978515625,-7.568359375,-23.25439453125,38.57421875
36650.76867275,-0.790283203125,-0.405029296875,0.1177978515625,-7.568359375,-23.25439453125,38.57421875
36650.783398541,-0.790283203125,-0.405029296875,0.1805419921875,-7.568359375,-23.25439453125,38.57421875
36650.783566791,-0.790283203125,-0.405029296875,0.1805419921875,-7.568359375,-16.90673828125,38.57421875
36650.801919833,-0.7503662109375,-0.405029296875,0.1805419921875,-7.568359375,-16.90673828125,38.57421875
36650.802003541,-0.7503662109375,-0.360595703125,0.1805419921875,-7.568359375,-16.90673828125,38.57421875
36650.802075,-0.7503662109375,-0.360595703125,0.1492919921875,-7.568359375,-16.90673828125,38.57421875
36650.827332458,-0.8990478515625,-0.360595703125,0.1492919921875,-7.568359375,-16.90673828125,38.57421875
36650.835093,-0.8990478515625,-0.376953125,0.1492919921875,-7.568359375,-16.90673828125,38.57421875
36650.83518425,-0.8990478515625,-0.376953125,0.1051025390625,-7.568359375,-16.90673828125,38.57421875
36650.835258541,-0.8990478515625,-0.376953125,0.1051025390625,-8.30078125,-16.90673828125,38.57421875
36650.857348291,-0.8770751953125,-0.376953125,0.1051025390625,-8.30078125,-16.90673828125,38.57421875
36650.87340275,-0.8770751953125,-0.2923583984375,0.1051025390625,-8.30078125,-16.90673828125,38.57421875
36650.873618625,-0.8770751953125,-0.2923583984375,0.1640625,-8.30078125,-16.90673828125,38.57421875
36650.873733375,-0.8770751953125,-0.2923583984375,0.1640625,-8.30078125,-9.94873046875,38.57421875
36650.903145583,-0.8509521484375,-0.2923583984375,0.1640625,-8.30078125,-9.94873046875,38.57421875
36650.903325,-0.8509521484375,-0.2315673828125,0.1640625,-8.30078125,-9.94873046875,38.57421875
36650.903941083,-0.8509521484375,-0.2315673828125,0.1409912109375,-8.30078125,-9.94873046875,38.57421875
36650.90411475,-0.8509521484375,-0.2315673828125,0.1409912109375,-8.30078125,-10.31494140625,38.57421875
36650.93239625,-0.8724365234375,-0.2315673828125,0.1409912109375,-8.30078125,-10.31494140625,38.57421875
36650.934227541,-0.8724365234375,-0.197509765625,0.1409912109375,-8.30078125,-10.31494140625,38.57421875
36650.934448625,-0.8724365234375,-0.197509765625,0.050048828125,-8.30078125,-10.31494140625,38.57421875
36650.934595,-0.8724365234375,-0.197509765625,0.050048828125,-13.61083984375,-10.31494140625,38.57421875
36650.980613375,-0.78515625,-0.197509765625,0.050048828125,-13.61083984375,-10.31494140625,38.57421875
36650.980808083,-0.78515625,-0.08154296875,0.050048828125,-13.61083984375,-10.31494140625,38.57421875
36650.980906708,-0.78515625,-0.08154296875,0.0684814453125,-13.61083984375,-10.31494140625,38.57421875
36650.9932425,-0.78515625,-0.08154296875,0.0684814453125,-13.61083984375,-3.90625,38.57421875
36650.993371583,-0.8974609375,-0.08154296875,0.0684814453125,-13.61083984375,-3.90625,38.57421875
36650.993445,-0.8974609375,-0.21630859375,0.0684814453125,-13.61083984375,-3.90625,38.57421875
36650.994089875,-0.8974609375,-0.21630859375,0.0638427734375,-13.61083984375,-3.90625,38.57421875
36651.021935083,-0.8974609375,-0.21630859375,0.0638427734375,-13.61083984375,-3.90625,12.20703125
36651.023716916,-0.874755859375,-0.21630859375,0.0638427734375,-13.61083984375,-3.90625,12.20703125
36651.023847958,-0.874755859375,-0.2535400390625,0.0638427734375,-13.61083984375,-3.90625,12.20703125
36651.023919833,-0.874755859375,-0.2535400390625,0.09228515625,-13.61083984375,-3.90625,12.20703125
36651.053452958,-0.874755859375,-0.2535400390625,0.09228515625,-13.61083984375,8.6669921875,12.20703125
36651.054316791,-0.874755859375,-0.2535400390625,0.09228515625,-13.61083984375,8.6669921875,14.892578125
36651.054436458,-0.8585205078125,-0.2535400390625,0.09228515625,-13.61083984375,8.6669921875,14.892578125
36651.0544735,-0.8585205078125,-0.2310791015625,0.09228515625,-13.61083984375,8.6669921875,14.892578125
36651.097917375,-0.8585205078125,-0.2310791015625,0.09228515625,-13.61083984375,10.3759765625,14.892578125
36651.098012291,-0.8585205078125,-0.2310791015625,0.09228515625,-13.61083984375,10.3759765625,10.19287109375
36651.098694166,-1.0411376953125,-0.2310791015625,0.09228515625,-13.61083984375,10.3759765625,10.19287109375
36651.126976041,-1.0411376953125,-0.2689208984375,0.09228515625,-13.61083984375,10.3759765625,10.19287109375
36651.13311025,-1.0411376953125,-0.2689208984375,0.09228515625,-13.61083984375,4.150390625,10.19287109375
36651.133151583,-1.0411376953125,-0.2689208984375,0.09228515625,-13.61083984375,4.150390625,9.8876953125
36651.143637083,-0.9808349609375,-0.2689208984375,0.09228515625,-13.61083984375,4.150390625,9.8876953125
36651.149662833,-0.9808349609375,-0.31982421875,0.09228515625,-13.61083984375,4.150390625,9.8876953125
36651.149724416,-0.9808349609375,-0.31982421875,0.265380859375,-13.61083984375,4.150390625,9.8876953125
36651.157918833,-0.9808349609375,-0.31982421875,0.265380859375,-13.61083984375,4.150390625,5.92041015625
36651.173083916,-1.027099609375,-0.31982421875,0.265380859375,-13.61083984375,4.150390625,5.92041015625
36651.173194958,-1.027099609375,-0.4263916015625,0.265380859375,-13.61083984375,4.150390625,5.92041015625
36651.173231166,-1.027099609375,-0.4263916015625,0.2132568359375,-13.61083984375,4.150390625,5.92041015625
36651.217845708,-1.027099609375,-0.4263916015625,0.2132568359375,-13.61083984375,0.18310546875,5.92041015625
36651.217937833,-1.027099609375,-0.4263916015625,0.2132568359375,-13.61083984375,0.18310546875,-0.30517578125
36651.218844708,-1.0665283203125,-0.4263916015625,0.2132568359375,-13.61083984375,0.18310546875,-0.30517578125
36651.218925208,-1.0665283203125,-0.361083984375,0.2132568359375,-13.61083984375,0.18310546875,-0.30517578125
36651.233189,-1.0665283203125,-0.361083984375,0.2132568359375,-13.61083984375,1.5869140625,-0.30517578125
36651.278082958,-1.0665283203125,-0.361083984375,0.2132568359375,-13.61083984375,1.5869140625,-3.96728515625
36651.278200625,-1.03662109375,-0.361083984375,0.2132568359375,-13.61083984375,1.5869140625,-3.96728515625
36651.307848333,-1.03662109375,-0.311279296875,0.2132568359375,-13.61083984375,1.5869140625,-3.96728515625
36651.309377333,-1.03662109375,-0.311279296875,0.2347412109375,-13.61083984375,1.5869140625,-3.96728515625
36651.30949375,-1.03662109375,-0.311279296875,0.2347412109375,-13.61083984375,4.94384765625,-3.96728515625
36651.323234416,-1.03662109375,-0.311279296875,0.2347412109375,-13.61083984375,4.94384765625,-7.32421875
36651.323383541,-1.0406494140625,-0.311279296875,0.2347412109375,-13.61083984375,4.94384765625,-7.32421875
36651.323448625,-1.0406494140625,-0.3499755859375,0.2347412109375,-13.61083984375,4.94384765625,-7.32421875
36651.324021041,-1.0406494140625,-0.3499755859375,0.2144775390625,-13.61083984375,4.94384765625,-7.32421875
36651.3381425,-1.0406494140625,-0.3499755859375,0.2144775390625,-13.61083984375,4.94384765625,-12.0849609375
36651.367865791,-1.17919921875,-0.3499755859375,0.2144775390625,-13.61083984375,4.94384765625,-12.0849609375
36651.367922083,-1.17919921875,-0.400146484375,0.2144775390625,-13.61083984375,4.94384765625,-12.0849609375
36651.383276166,-1.17919921875,-0.400146484375,0.283203125,-13.61083984375,4.94384765625,-12.0849609375
36651.412980708,-1.17919921875,-0.400146484375,0.283203125,15.19775390625,4.94384765625,-12.0849609375
36651.413103458,-1.21044921875,-0.400146484375,0.283203125,15.19775390625,4.94384765625,-12.0849609375
36651.413746416,-1.21044921875,-0.446044921875,0.283203125,15.19775390625,4.94384765625,-12.0849609375
36651.43389575,-1.21044921875,-0.446044921875,0.283203125,19.53125,4.94384765625,-12.0849609375
36651.433954916,-1.21044921875,-0.446044921875,0.283203125,19.53125,4.94384765625,-9.8876953125
36651.473140958,-1.21923828125,-0.446044921875,0.283203125,19.53125,4.94384765625,-9.8876953125
36651.473278166,-1.21923828125,-0.4683837890625,0.283203125,19.53125,4.94384765625,-9.8876953125
36651.473716625,-1.21923828125,-0.4683837890625,0.2894287109375,19.53125,4.94384765625,-9.8876953125
36651.503031083,-1.21923828125,-0.4683837890625,0.2894287109375,4.2724609375,4.94384765625,-9.8876953125
36651.503166083,-1.1871337890625,-0.4683837890625,0.2894287109375,4.2724609375,4.94384765625,-9.8876953125
36651.503853916,-1.1871337890625,-0.4151611328125,0.2894287109375,4.2724609375,4.94384765625,-9.8876953125
36651.548083583,-1.1871337890625,-0.4151611328125,0.2994384765625,4.2724609375,4.94384765625,-9.8876953125
36651.548236916,-1.1871337890625,-0.4151611328125,0.2994384765625,4.2724609375,6.40869140625,-9.8876953125
36651.551692,-1.1871337890625,-0.4151611328125,0.2994384765625,4.2724609375,6.40869140625,-3.2958984375
36651.551758708,-1.0677490234375,-0.4151611328125,0.2994384765625,4.2724609375,6.40869140625,-3.2958984375
36651.607283833,-1.0677490234375,-0.4151611328125,0.2286376953125,4.2724609375,6.40869140625,-3.2958984375
36651.608784833,-1.0677490234375,-0.4151611328125,0.2286376953125,10.43701171875,6.40869140625,-3.2958984375
36651.608971916,-1.0677490234375,-0.4151611328125,0.2286376953125,10.43701171875,1.46484375,-3.2958984375
36651.609080125,-0.966552734375,-0.4151611328125,0.2286376953125,10.43701171875,1.46484375,-3.2958984375
36651.634065416,-0.966552734375,-0.4151611328125,0.1929931640625,10.43701171875,1.46484375,-3.2958984375
36651.63414475,-0.966552734375,-0.4151611328125,0.1929931640625,-10.31494140625,1.46484375,-3.2958984375
36651.634200375,-0.966552734375,-0.4151611328125,0.1929931640625,-10.31494140625,-1.77001953125,-3.2958984375
36651.682724541,-0.8909912109375,-0.4151611328125,0.1929931640625,-10.31494140625,-1.77001953125,-3.2958984375
36651.687053541,-0.8909912109375,-0.2501220703125,0.1929931640625,-10.31494140625,-1.77001953125,-3.2958984375
36651.687132791,-0.8909912109375,-0.2501220703125,0.1971435546875,-10.31494140625,-1.77001953125,-3.2958984375
36651.687205666,-0.8909912109375,-0.2501220703125,0.1971435546875,5.0048828125,-1.77001953125,-3.2958984375
NEW_REP,,,,,,
36651.71747675,-0.9014892578125,-0.2501220703125,0.1971435546875,5.0048828125,-1.77001953125,-3.2958984375
36651.717539833,-0.9014892578125,-0.271484375,0.1971435546875,5.0048828125,-1.77001953125,-3.2958984375
36651.717593125,-0.9014892578125,-0.271484375,0.211181640625,5.0048828125,-1.77001953125,-3.2958984375
36651.717644583,-0.9014892578125,-0.271484375,0.211181640625,5.0048828125,-7.2021484375,-3.2958984375
36651.717695125,-0.9014892578125,-0.271484375,0.211181640625,5.0048828125,-7.2021484375,-5.615234375
36651.743028458,-0.9384765625,-0.271484375,0.211181640625,5.0048828125,-7.2021484375,-5.615234375
36651.7441625,-0.9384765625,-0.2503662109375,0.211181640625,5.0048828125,-7.2021484375,-5.615234375
36651.78820425,-0.9384765625,-0.2503662109375,0.2086181640625,5.0048828125,-7.2021484375,-5.615234375
36651.788375083,-0.9384765625,-0.2503662109375,0.2086181640625,5.0048828125,-7.14111328125,-5.615234375
36651.789052625,-0.9693603515625,-0.2503662109375,0.2086181640625,5.0048828125,-7.14111328125,-5.615234375
36651.789212166,-0.9693603515625,-0.255615234375,0.2086181640625,5.0048828125,-7.14111328125,-5.615234375
36651.817531,-0.9693603515625,-0.255615234375,0.2086181640625,1.8310546875,-7.14111328125,-5.615234375
36651.8175915,-0.9693603515625,-0.255615234375,0.2086181640625,1.8310546875,-5.92041015625,-5.615234375
36651.817644,-0.9693603515625,-0.255615234375,0.2086181640625,1.8310546875,-5.92041015625,-2.8076171875
36651.834535708,-1.08154296875,-0.255615234375,0.2086181640625,1.8310546875,-5.92041015625,-2.8076171875
36651.834592875,-1.08154296875,-0.2874755859375,0.2086181640625,1.8310546875,-5.92041015625,-2.8076171875
36651.834645416,-1.08154296875,-0.2874755859375,0.2337646484375,1.8310546875,-5.92041015625,-2.8076171875
36651.834696125,-1.08154296875,-0.2874755859375,0.2337646484375,1.28173828125,-5.92041015625,-2.8076171875
36651.850609083,-1.1568603515625,-0.2874755859375,0.2337646484375,1.28173828125,-5.92041015625,-2.8076171875
36651.850665,-1.1568603515625,-0.2989501953125,0.2337646484375,1.28173828125,-5.92041015625,-2.8076171875
36651.893385875,-1.1568603515625,-0.2989501953125,0.244140625,1.28173828125,-5.92041015625,-2.8076171875
36651.893532875,-1.1568603515625,-0.2989501953125,0.244140625,1.28173828125,-8.30078125,-2.8076171875
36651.90825125,-1.1568603515625,-0.2989501953125,0.244140625,1.28173828125,-8.30078125,9.6435546875
36651.908421708,-1.1976318359375,-0.2989501953125,0.244140625,1.28173828125,-8.30078125,9.6435546875
36651.90955525,-1.1976318359375,-0.2989501953125,0.2542724609375,1.28173828125,-8.30078125,9.6435546875
36651.938348833,-1.1976318359375,-0.2989501953125,0.2542724609375,-2.74658203125,-8.30078125,9.6435546875
36651.967992625,-1.1976318359375,-0.2989501953125,0.2542724609375,-2.74658203125,-8.30078125,16.41845703125
36651.968139958,-1.2218017578125,-0.2989501953125,0.2542724609375,-2.74658203125,-8.30078125,16.41845703125
36651.984038916,-1.2218017578125,-0.345458984375,0.2542724609375,-2.74658203125,-8.30078125,16.41845703125
36651.984097666,-1.2218017578125,-0.345458984375,0.222900390625,-2.74658203125,-8.30078125,16.41845703125
36652.012623625,-1.2218017578125,-0.345458984375,0.222900390625,-2.74658203125,-8.30078125,34.1796875
36652.043330416,-1.2027587890625,-0.345458984375,0.222900390625,-2.74658203125,-8.30078125,34.1796875
36652.043479125,-1.2027587890625,-0.3753662109375,0.222900390625,-2.74658203125,-8.30078125,34.1796875
36652.044019666,-1.2027587890625,-0.3753662109375,0.201416015625,-2.74658203125,-8.30078125,34.1796875
36652.044143583,-1.2027587890625,-0.3753662109375,0.201416015625,-2.74658203125,-13.916015625,34.1796875
36652.072707791,-1.2110595703125,-0.3753662109375,0.201416015625,-2.74658203125,-13.916015625,34.1796875
36652.076031583,-1.2110595703125,-0.4766845703125,0.201416015625,-2.74658203125,-13.916015625,34.1796875
36652.076101333,-1.2110595703125,-0.4766845703125,0.1328125,-2.74658203125,-13.916015625,34.1796875
36652.076163458,-1.2110595703125,-0.4766845703125,0.1328125,-2.74658203125,-14.09912109375,34.1796875
36652.134112166,-1.130859375,-0.4766845703125,0.1328125,-2.74658203125,-14.09912109375,34.1796875
36652.134312708,-1.130859375,-0.443603515625,0.1328125,-2.74658203125,-14.09912109375,34.1796875
36652.134423125,-1.130859375,-0.443603515625,0.201416015625,-2.74658203125,-14.09912109375,34.1796875
36652.148875041,-1.130859375,-0.443603515625,0.201416015625,9.3994140625,-14.09912109375,34.1796875
36652.148955458,-1.0611572265625,-0.443603515625,0.201416015625,9.3994140625,-14.09912109375,34.1796875
36652.149059208,-1.0611572265625,-0.431396484375,0.201416015625,9.3994140625,-14.09912109375,34.1796875
36652.149259666,-1.0611572265625,-0.431396484375,0.2181396484375,9.3994140625,-14.09912109375,34.1796875
36652.223736416,-1.0611572265625,-0.431396484375,0.2181396484375,9.3994140625,-9.21630859375,34.1796875
36652.235308375,-1.0611572265625,-0.431396484375,0.2181396484375,9.3994140625,-9.21630859375,36.7431640625
36652.2354465,-0.957763671875,-0.431396484375,0.2181396484375,9.3994140625,-9.21630859375,36.7431640625
36652.238641041,-0.957763671875,-0.431396484375,0.1865234375,9.3994140625,-9.21630859375,36.7431640625
36652.238989291,-0.957763671875,-0.431396484375,0.1865234375,9.3994140625,-6.77490234375,36.7431640625
36652.239090291,-0.957763671875,-0.431396484375,0.1865234375,9.3994140625,-6.77490234375,21.78955078125
36652.253287958,-0.73583984375,-0.431396484375,0.1865234375,9.3994140625,-6.77490234375,21.78955078125
36652.253458125,-0.73583984375,-0.4144287109375,0.1865234375,9.3994140625,-6.77490234375,21.78955078125
36652.254566375,-0.73583984375,-0.4144287109375,0.08154296875,9.3994140625,-6.77490234375,21.78955078125
36652.268501583,-0.73583984375,-0.4144287109375,0.08154296875,9.3994140625,-8.30078125,21.78955078125
36652.285299833,-0.73583984375,-0.4144287109375,0.08154296875,9.3994140625,-8.30078125,9.21630859375
36652.285393458,-0.784912109375,-0.4144287109375,0.08154296875,9.3994140625,-8.30078125,9.21630859375
36652.285480625,-0.784912109375,-0.486572265625,0.08154296875,9.3994140625,-8.30078125,9.21630859375
36652.285566416,-0.784912109375,-0.486572265625,0.0142822265625,9.3994140625,-8.30078125,9.21630859375
36652.312370541,-0.784912109375,-0.486572265625,0.0142822265625,9.3994140625,-9.033203125,9.21630859375
36652.318519916,-0.784912109375,-0.486572265625,0.0142822265625,9.3994140625,-9.033203125,4.94384765625
36652.318620125,-0.7325439453125,-0.486572265625,0.0142822265625,9.3994140625,-9.033203125,4.94384765625
36652.328401541,-0.7325439453125,-0.486572265625,0.0826416015625,9.3994140625,-9.033203125,4.94384765625
36652.32866,-0.7325439453125,-0.486572265625,0.0826416015625,-7.75146484375,-9.033203125,4.94384765625
36652.328746083,-0.7325439453125,-0.486572265625,0.0826416015625,-7.75146484375,-4.39453125,4.94384765625
36652.358358333,-0.73583984375,-0.486572265625,0.0826416015625,-7.75146484375,-4.39453125,4.94384765625
36652.35861675,-0.73583984375,-0.39697265625,0.0826416015625,-7.75146484375,-4.39453125,4.94384765625
36652.359080541,-0.73583984375,-0.39697265625,0.024169921875,-7.75146484375,-4.39453125,4.94384765625
36652.359313583,-0.73583984375,-0.39697265625,0.024169921875,-7.75146484375,-3.11279296875,4.94384765625
36652.403094625,-0.6993408203125,-0.39697265625,0.024169921875,-7.75146484375,-3.11279296875,4.94384765625
36652.403672791,-0.6993408203125,-0.430908203125,0.024169921875,-7.75146484375,-3.11279296875,4.94384765625
36652.447736458,-0.6993408203125,-0.430908203125,0.0338134765625,-7.75146484375,-3.11279296875,4.94384765625
36652.45439275,-0.6993408203125,-0.430908203125,0.0338134765625,-7.75146484375,-3.11279296875,4.94384765625
36652.454516125,-0.8017578125,-0.430908203125,0.0338134765625,-7.75146484375,-3.11279296875,4.94384765625
36652.48490325,-0.8017578125,-0.5238037109375,0.0338134765625,-7.75146484375,-3.11279296875,4.94384765625
36652.484983625,-0.8017578125,-0.5238037109375,0.0338134765625,-2.99072265625,-3.11279296875,4.94384765625
36652.485053041,-0.8017578125,-0.5238037109375,0.0338134765625,-2.99072265625,-5.55419921875,4.94384765625
36652.485122125,-0.8017578125,-0.5238037109375,0.0338134765625,-2.99072265625,-5.55419921875,-11.5966796875
36652.509026125,-0.8017578125,-0.5030517578125,0.0338134765625,-2.99072265625,-5.55419921875,-11.5966796875
36652.509245166,-0.8017578125,-0.5030517578125,0.0272216796875,-2.99072265625,-5.55419921875,-11.5966796875
36652.509359166,-0.8017578125,-0.5030517578125,0.0272216796875,-9.21630859375,-5.55419921875,-11.5966796875
36652.509570916,-0.8017578125,-0.5030517578125,0.0272216796875,-9.21630859375,2.44140625,-11.5966796875
36652.538168541,-0.6162109375,-0.5030517578125,0.0272216796875,-9.21630859375,2.44140625,-11.5966796875
36652.543555958,-0.6162109375,-0.392822265625,0.0272216796875,-9.21630859375,2.44140625,-11.5966796875
36652.543650958,-0.6162109375,-0.392822265625,0.1273193359375,-9.21630859375,2.44140625,-11.5966796875
36652.543737875,-0.6162109375,-0.392822265625,0.1273193359375,-9.21630859375,5.67626953125,-11.5966796875
36652.553318208,-0.6533203125,-0.392822265625,0.1273193359375,-9.21630859375,5.67626953125,-11.5966796875
36652.553592791,-0.6533203125,-0.4827880859375,0.1273193359375,-9.21630859375,5.67626953125,-11.5966796875
36652.557800291,-0.6533203125,-0.4827880859375,0.0625,-9.21630859375,5.67626953125,-11.5966796875
36652.568396916,-0.6533203125,-0.4827880859375,0.0625,-9.21630859375,4.0283203125,-11.5966796875
36652.572578791,-0.6533203125,-0.4827880859375,0.0625,-9.21630859375,4.0283203125,-23.49853515625
36652.601595625,-0.6343994140625,-0.4827880859375,0.0625,-9.21630859375,4.0283203125,-23.49853515625
36652.601685291,-0.6343994140625,-0.4407958984375,0.0625,-9.21630859375,4.0283203125,-23.49853515625
36652.601755625,-0.6343994140625,-0.4407958984375,0.1361083984375,-9.21630859375,4.0283203125,-23.49853515625
36652.601827041,-0.6343994140625,-0.4407958984375,0.1361083984375,-19.59228515625,4.0283203125,-23.49853515625
36652.628375541,-0.6676025390625,-0.4407958984375,0.1361083984375,-19.59228515625,4.0283203125,-23.49853515625
36652.634709375,-0.6676025390625,-0.40380859375,0.1361083984375,-19.59228515625,4.0283203125,-23.49853515625
36652.634830708,-0.6676025390625,-0.40380859375,0.2110595703125,-19.59228515625,4.0283203125,-23.49853515625
36652.634907166,-0.6676025390625,-0.40380859375,0.2110595703125,-19.59228515625,-2.62451171875,-23.49853515625
36652.643370208,-0.644287109375,-0.40380859375,0.2110595703125,-19.59228515625,-2.62451171875,-23.49853515625
36652.643557666,-0.644287109375,-0.5013427734375,0.2110595703125,-19.59228515625,-2.62451171875,-23.49853515625
36652.644514,-0.644287109375,-0.5013427734375,0.22216796875,-19.59228515625,-2.62451171875,-23.49853515625
36652.65838925,-0.644287109375,-0.5013427734375,0.22216796875,-19.59228515625,1.77001953125,-23.49853515625
36652.658544625,-0.644287109375,-0.5013427734375,0.22216796875,-19.59228515625,1.77001953125,-4.8828125
36652.687416875,-0.58984375,-0.5013427734375,0.22216796875,-19.59228515625,1.77001953125,-4.8828125
36652.689286166,-0.58984375,-0.5140380859375,0.22216796875,-19.59228515625,1.77001953125,-4.8828125
36652.693660625,-0.58984375,-0.5140380859375,0.24169921875,-19.59228515625,1.77001953125,-4.8828125
36652.6938215,-0.58984375,-0.5140380859375,0.24169921875,16.29638671875,1.77001953125,-4.8828125
36652.704338083,-0.578125,-0.5140380859375,0.24169921875,16.29638671875,1.77001953125,-4.8828125
36652.718030458,-0.578125,-0.5255126953125,0.24169921875,16.29638671875,1.77001953125,-4.8828125
36652.718128916,-0.578125,-0.5255126953125,0.2523193359375,16.29638671875,1.77001953125,-4.8828125
36652.735159083,-0.578125,-0.5255126953125,0.2523193359375,16.29638671875,-0.9765625,-4.8828125
36652.735236375,-0.578125,-0.5255126953125,0.2523193359375,16.29638671875,-0.9765625,10.68115234375
36652.735308,-0.5888671875,-0.5255126953125,0.2523193359375,16.29638671875,-0.9765625,10.68115234375
36652.751417125,-0.5888671875,-0.64453125,0.2523193359375,16.29638671875,-0.9765625,10.68115234375
36652.751495458,-0.5888671875,-0.64453125,0.2523193359375,16.29638671875,-5.2490234375,10.68115234375
36652.751566708,-0.5888671875,-0.64453125,0.2523193359375,16.29638671875,-5.2490234375,16.78466796875
36652.793560208,-0.546142578125,-0.64453125,0.2523193359375,16.29638671875,-5.2490234375,16.78466796875
36652.793738625,-0.546142578125,-0.5809326171875,0.2523193359375,16.29638671875,-5.2490234375,16.78466796875
36652.794907208,-0.546142578125,-0.5809326171875,0.1568603515625,16.29638671875,-5.2490234375,16.78466796875
36652.795093416,-0.546142578125,-0.5809326171875,0.1568603515625,16.29638671875,-4.5166015625,16.78466796875
36652.818201291,-0.581787109375,-0.5809326171875,0.1568603515625,16.29638671875,-4.5166015625,16.78466796875
36652.818282916,-0.581787109375,-0.471923828125,0.1568603515625,16.29638671875,-4.5166015625,16.78466796875
36652.818375333,-0.581787109375,-0.471923828125,0.1336669921875,16.29638671875,-4.5166015625,16.78466796875
36652.837602,-0.581787109375,-0.471923828125,0.1336669921875,16.29638671875,-2.0751953125,16.78466796875
36652.83932875,-0.581787109375,-0.471923828125,0.1336669921875,16.29638671875,-2.0751953125,15.380859375
36652.839630166,-0.6119384765625,-0.471923828125,0.1336669921875,16.29638671875,-2.0751953125,15.380859375
36652.839766916,-0.6119384765625,-0.48779296875,0.1336669921875,16.29638671875,-2.0751953125,15.380859375
36652.867411333,-0.6119384765625,-0.48779296875,0.1336669921875,16.29638671875,0.3662109375,15.380859375
36652.884696541,-0.6119384765625,-0.48779296875,0.1336669921875,16.29638671875,0.3662109375,14.892578125
36652.901727958,-0.771240234375,-0.48779296875,0.1336669921875,16.29638671875,0.3662109375,14.892578125
36652.901803333,-0.771240234375,-0.4912109375,0.1336669921875,16.29638671875,0.3662109375,14.892578125
36652.901873125,-0.771240234375,-0.4912109375,0.1043701171875,16.29638671875,0.3662109375,14.892578125
36652.943113333,-0.728759765625,-0.4912109375,0.1043701171875,16.29638671875,0.3662109375,14.892578125
36652.943286041,-0.728759765625,-0.3607177734375,0.1043701171875,16.29638671875,0.3662109375,14.892578125
36652.973382333,-0.728759765625,-0.3607177734375,0.0986328125,16.29638671875,0.3662109375,14.892578125
36652.973638083,-0.728759765625,-0.3607177734375,0.0986328125,16.29638671875,0.3662109375,4.69970703125
36652.974191958,-0.728759765625,-0.36865234375,0.0986328125,16.29638671875,0.3662109375,4.69970703125
36652.974403125,-0.728759765625,-0.36865234375,0.10009765625,16.29638671875,0.3662109375,4.69970703125
36653.001457041,-0.728759765625,-0.36865234375,0.10009765625,16.29638671875,16.54052734375,4.69970703125
36653.001537458,-0.728759765625,-0.36865234375,0.10009765625,16.29638671875,16.54052734375,3.7841796875
36653.018331125,-0.739990234375,-0.36865234375,0.10009765625,16.29638671875,16.54052734375,3.7841796875
36653.019063333,-0.739990234375,-0.3533935546875,0.10009765625,16.29638671875,16.54052734375,3.7841796875
36653.01919975,-0.739990234375,-0.3533935546875,0.0869140625,16.29638671875,16.54052734375,3.7841796875
36653.077595375,-0.739990234375,-0.3533935546875,0.0869140625,7.26318359375,16.54052734375,3.7841796875
36653.082891416,-0.84912109375,-0.3533935546875,0.0869140625,7.26318359375,16.54052734375,3.7841796875
36653.082983833,-0.84912109375,-0.315673828125,0.0869140625,7.26318359375,16.54052734375,3.7841796875
36653.083071458,-0.84912109375,-0.315673828125,0.0555419921875,7.26318359375,16.54052734375,3.7841796875
36653.124343083,-0.84912109375,-0.315673828125,0.0555419921875,7.26318359375,19.59228515625,3.7841796875
36653.140634958,-0.84912109375,-0.315673828125,0.0555419921875,7.26318359375,19.59228515625,-8.60595703125
36653.140871333,-0.921630859375,-0.315673828125,0.0555419921875,7.26318359375,19.59228515625,-8.60595703125
36653.141016041,-0.921630859375,-0.3094482421875,0.0555419921875,7.26318359375,19.59228515625,-8.60595703125
36653.183387458,-0.921630859375,-0.3094482421875,0.0555419921875,7.26318359375,30.70068359375,-8.60595703125
36653.18358925,-1.02294921875,-0.3094482421875,0.0555419921875,7.26318359375,30.70068359375,-8.60595703125
36653.184103083,-1.02294921875,-0.26416015625,0.0555419921875,7.26318359375,30.70068359375,-8.60595703125
36653.198234666,-1.02294921875,-0.26416015625,0.2347412109375,7.26318359375,30.70068359375,-8.60595703125
36653.19848725,-1.02294921875,-0.26416015625,0.2347412109375,7.26318359375,14.7705078125,-8.60595703125
36653.19859775,-1.02294921875,-0.26416015625,0.2347412109375,7.26318359375,14.7705078125,-25.87890625
36653.258617625,-1.000732421875,-0.26416015625,0.2347412109375,7.26318359375,14.7705078125,-25.87890625
36653.25889175,-1.000732421875,-0.2027587890625,0.2347412109375,7.26318359375,14.7705078125,-25.87890625
36653.259459833,-1.000732421875,-0.2027587890625,0.32568359375,7.26318359375,14.7705078125,-25.87890625
36653.259690541,-1.000732421875,-0.2027587890625,0.32568359375,1.89208984375,14.7705078125,-25.87890625
36653.302439458,-1.0009765625,-0.2027587890625,0.32568359375,1.89208984375,14.7705078125,-25.87890625
36653.304049,-1.0009765625,-0.2772216796875,0.32568359375,1.89208984375,14.7705078125,-25.87890625
36653.304317791,-1.0009765625,-0.2772216796875,0.3333740234375,1.89208984375,14.7705078125,-25.87890625
36653.3044335,-1.0009765625,-0.2772216796875,0.3333740234375,1.89208984375,2.38037109375,-25.87890625
36653.333125,-1.3543701171875,-0.2772216796875,0.3333740234375,1.89208984375,2.38037109375,-25.87890625
36653.33457375,-1.3543701171875,-0.3565673828125,0.3333740234375,1.89208984375,2.38037109375,-25.87890625
36653.334712583,-1.3543701171875,-0.3565673828125,0.3004150390625,1.89208984375,2.38037109375,-25.87890625
36653.378753875,-1.3543701171875,-0.3565673828125,0.3004150390625,-7.75146484375,2.38037109375,-25.87890625
36653.378974041,-1.384521484375,-0.3565673828125,0.3004150390625,-7.75146484375,2.38037109375,-25.87890625
36653.3797265,-1.384521484375,-0.3392333984375,0.3004150390625,-7.75146484375,2.38037109375,-25.87890625
36653.379933833,-1.384521484375,-0.3392333984375,0.2801513671875,-7.75146484375,2.38037109375,-25.87890625
36653.4021465,-1.384521484375,-0.3392333984375,0.2801513671875,-7.75146484375,0.8544921875,-25.87890625
36653.4022475,-1.384521484375,-0.3392333984375,0.2801513671875,-7.75146484375,0.8544921875,-15.13671875
36653.423120958,-1.2135009765625,-0.3392333984375,0.2801513671875,-7.75146484375,0.8544921875,-15.13671875
36653.423303625,-1.2135009765625,-0.279296875,0.2801513671875,-7.75146484375,0.8544921875,-15.13671875
36653.423764291,-1.2135009765625,-0.279296875,0.3056640625,-7.75146484375,0.8544921875,-15.13671875
36653.438480416,-1.2135009765625,-0.279296875,0.3056640625,-7.75146484375,8.30078125,-15.13671875
36653.438679208,-1.2135009765625,-0.279296875,0.3056640625,-7.75146484375,8.30078125,-4.7607421875
36653.54326325,-1.0831298828125,-0.279296875,0.3056640625,-7.75146484375,8.30078125,-4.7607421875
36653.559186791,-1.0831298828125,-0.298095703125,0.3056640625,-7.75146484375,8.30078125,-4.7607421875
36653.559589875,-1.0831298828125,-0.298095703125,0.2894287109375,-7.75146484375,8.30078125,-4.7607421875
36653.559705208,-1.0831298828125,-0.298095703125,0.2894287109375,-7.75146484375,8.48388671875,-4.7607421875
36653.559865583,-1.004638671875,-0.298095703125,0.2894287109375,-7.75146484375,8.48388671875,-4.7607421875
36653.584555708,-1.004638671875,-0.298095703125,0.28564453125,-7.75146484375,8.48388671875,-4.7607421875
36653.584636375,-1.004638671875,-0.298095703125,0.28564453125,-2.197265625,8.48388671875,-4.7607421875
36653.584705833,-1.004638671875,-0.298095703125,0.28564453125,-2.197265625,2.5634765625,-4.7607421875
36653.588363583,-0.920166015625,-0.298095703125,0.28564453125,-2.197265625,2.5634765625,-4.7607421875
36653.588603458,-0.920166015625,-0.24951171875,0.28564453125,-2.197265625,2.5634765625,-4.7607421875
36653.58869625,-0.920166015625,-0.24951171875,0.2503662109375,-2.197265625,2.5634765625,-4.7607421875
36653.60336225,-0.920166015625,-0.24951171875,0.2503662109375,-2.197265625,-7.2021484375,-4.7607421875
36653.603537125,-0.920166015625,-0.24951171875,0.2503662109375,-2.197265625,-7.2021484375,2.01416015625
36653.694134541,-0.9200439453125,-0.24951171875,0.2503662109375,-2.197265625,-7.2021484375,2.01416015625
36653.7097415,-0.9200439453125,-0.241943359375,0.2503662109375,-2.197265625,-7.2021484375,2.01416015625
36653.71003275,-0.9200439453125,-0.241943359375,0.2471923828125,-2.197265625,-7.2021484375,2.01416015625
36653.710130916,-0.9200439453125,-0.241943359375,0.2471923828125,-2.197265625,-7.14111328125,2.01416015625
36653.725121041,-0.943115234375,-0.241943359375,0.2471923828125,-2.197265625,-7.14111328125,2.01416015625
NEW_REP,,,,,,
36653.739996791,-0.943115234375,-0.241943359375,0.242919921875,-2.197265625,-7.14111328125,2.01416015625
36653.740194,-0.943115234375,-0.241943359375,0.242919921875,2.38037109375,-7.14111328125,2.01416015625
36653.754922791,-0.943115234375,-0.241943359375,0.242919921875,2.38037109375,-5.615234375,2.01416015625
36653.7551595,-1.040283203125,-0.241943359375,0.242919921875,2.38037109375,-5.615234375,2.01416015625
36653.755321541,-1.040283203125,-0.267333984375,0.242919921875,2.38037109375,-5.615234375,2.01416015625
36653.783782375,-1.040283203125,-0.267333984375,0.242919921875,2.38037109375,-3.60107421875,2.01416015625
36653.784020916,-1.040283203125,-0.267333984375,0.242919921875,2.38037109375,-3.60107421875,5.92041015625
36653.798311125,-1.087890625,-0.267333984375,0.242919921875,2.38037109375,-3.60107421875,5.92041015625
36653.798579666,-1.087890625,-0.2733154296875,0.242919921875,2.38037109375,-3.60107421875,5.92041015625
36653.798690708,-1.087890625,-0.2733154296875,0.2666015625,2.38037109375,-3.60107421875,5.92041015625
36653.828382291,-1.1343994140625,-0.2733154296875,0.2666015625,2.38037109375,-3.60107421875,5.92041015625
36653.8358305,-1.1343994140625,-0.2763671875,0.2666015625,2.38037109375,-3.60107421875,5.92041015625
36653.835920791,-1.1343994140625,-0.2763671875,0.27294921875,2.38037109375,-3.60107421875,5.92041015625
36653.836004875,-1.1343994140625,-0.2763671875,0.27294921875,-2.8076171875,-3.60107421875,5.92041015625
36653.843451208,-1.15625,-0.2763671875,0.27294921875,-2.8076171875,-3.60107421875,5.92041015625
36653.8437035,-1.15625,-0.2794189453125,0.27294921875,-2.8076171875,-3.60107421875,5.92041015625
36653.843821583,-1.15625,-0.2794189453125,0.2591552734375,-2.8076171875,-3.60107421875,5.92041015625
36653.873367333,-1.15625,-0.2794189453125,0.2591552734375,-2.8076171875,-8.6669921875,5.92041015625
36653.873618333,-1.15625,-0.2794189453125,0.2591552734375,-2.8076171875,-8.6669921875,17.63916015625
36653.888649541,-1.1661376953125,-0.2794189453125,0.2591552734375,-2.8076171875,-8.6669921875,17.63916015625
36653.888910458,-1.1661376953125,-0.3050537109375,0.2591552734375,-2.8076171875,-8.6669921875,17.63916015625
36653.888999,-1.1661376953125,-0.3050537109375,0.2591552734375,-2.8076171875,-8.6669921875,17.63916015625
36653.918685708,-1.1661376953125,-0.3050537109375,0.2591552734375,-2.8076171875,-8.6669921875,22.4609375
36653.919800208,-1.164306640625,-0.3050537109375,0.2591552734375,-2.8076171875,-8.6669921875,22.4609375
36653.920047583,-1.164306640625,-0.3179931640625,0.2591552734375,-2.8076171875,-8.6669921875,22.4609375
36653.920155416,-1.164306640625,-0.3179931640625,0.280517578125,-2.8076171875,-8.6669921875,22.4609375
36653.935391791,-1.164306640625,-0.3179931640625,0.280517578125,-2.8076171875,-8.72802734375,22.4609375
36653.935471791,-1.164306640625,-0.3179931640625,0.280517578125,-2.8076171875,-8.72802734375,27.89306640625
36653.952457875,-1.125244140625,-0.3179931640625,0.280517578125,-2.8076171875,-8.72802734375,27.89306640625
36653.952553958,-1.125244140625,-0.32470703125,0.280517578125,-2.8076171875,-8.72802734375,27.89306640625
36653.952641166,-1.125244140625,-0.32470703125,0.2708740234375,-2.8076171875,-8.72802734375,27.89306640625
36653.978494958,-1.125244140625,-0.32470703125,0.2708740234375,-2.8076171875,-8.30078125,27.89306640625
36653.984836833,-1.125244140625,-0.32470703125,0.2708740234375,-2.8076171875,-8.30078125,30.029296875
36653.984959583,-1.10546875,-0.32470703125,0.2708740234375,-2.8076171875,-8.30078125,30.029296875
36654.008224958,-1.10546875,-0.32470703125,0.2596435546875,-2.8076171875,-8.30078125,30.029296875
36654.009646666,-1.10546875,-0.32470703125,0.2596435546875,6.9580078125,-8.30078125,30.029296875
36654.009887916,-1.10546875,-0.32470703125,0.2596435546875,6.9580078125,-9.58251953125,30.029296875
36654.038425958,-1.110595703125,-0.32470703125,0.2596435546875,6.9580078125,-9.58251953125,30.029296875
36654.038619333,-1.110595703125,-0.32470703125,0.2462158203125,6.9580078125,-9.58251953125,30.029296875
36654.039171041,-1.110595703125,-0.32470703125,0.2462158203125,5.67626953125,-9.58251953125,30.029296875
36654.039345083,-1.110595703125,-0.32470703125,0.2462158203125,5.67626953125,-10.43701171875,30.029296875
36654.082553041,-1.0921630859375,-0.32470703125,0.2462158203125,5.67626953125,-10.43701171875,30.029296875
36654.098608708,-1.0921630859375,-0.3525390625,0.2462158203125,5.67626953125,-10.43701171875,30.029296875
36654.098903041,-1.0921630859375,-0.3525390625,0.241455078125,5.67626953125,-10.43701171875,30.029296875
36654.103516916,-1.0921630859375,-0.3525390625,0.241455078125,5.67626953125,-9.82666015625,30.029296875
36654.134995583,-1.0367431640625,-0.3525390625,0.241455078125,5.67626953125,-9.82666015625,30.029296875
36654.135075916,-1.0367431640625,-0.3525390625,0.2086181640625,5.67626953125,-9.82666015625,30.029296875
36654.144338291,-1.0367431640625,-0.3525390625,0.2086181640625,16.05224609375,-9.82666015625,30.029296875
36654.144575166,-1.0367431640625,-0.3525390625,0.2086181640625,16.05224609375,-9.46044921875,30.029296875
36654.144728125,-0.9371337890625,-0.3525390625,0.2086181640625,16.05224609375,-9.46044921875,30.029296875
36654.1449025,-0.9371337890625,-0.3424072265625,0.2086181640625,16.05224609375,-9.46044921875,30.029296875
36654.15849425,-0.9371337890625,-0.3424072265625,0.2086181640625,16.05224609375,-4.7607421875,30.029296875
36654.158664916,-0.9371337890625,-0.3424072265625,0.2086181640625,16.05224609375,-4.7607421875,18.06640625
36654.188361041,-0.92236328125,-0.3424072265625,0.2086181640625,16.05224609375,-4.7607421875,18.06640625
36654.188547708,-0.92236328125,-0.33056640625,0.2086181640625,16.05224609375,-4.7607421875,18.06640625
36654.189233541,-0.92236328125,-0.33056640625,0.178955078125,16.05224609375,-4.7607421875,18.06640625
36654.189414041,-0.92236328125,-0.33056640625,0.178955078125,16.05224609375,-1.15966796875,18.06640625
36654.203374625,-0.8984375,-0.33056640625,0.178955078125,16.05224609375,-1.15966796875,18.06640625
36654.203525833,-0.8984375,-0.3782958984375,0.178955078125,16.05224609375,-1.15966796875,18.06640625
36654.2046465,-0.8984375,-0.3782958984375,0.1265869140625,16.05224609375,-1.15966796875,18.06640625
36654.218406208,-0.8984375,-0.3782958984375,0.1265869140625,16.05224609375,-1.52587890625,18.06640625
36654.218481,-0.8984375,-0.3782958984375,0.1265869140625,16.05224609375,-1.52587890625,9.521484375
36654.278649583,-0.8701171875,-0.3782958984375,0.1265869140625,16.05224609375,-1.52587890625,9.521484375
36654.282935291,-0.8701171875,-0.3458251953125,0.1265869140625,16.05224609375,-1.52587890625,9.521484375
36654.283169708,-0.8701171875,-0.3458251953125,0.2054443359375,16.05224609375,-1.52587890625,9.521484375
36654.284363458,-0.8701171875,-0.3458251953125,0.2054443359375,16.05224609375,0.3662109375,9.521484375
36654.339260208,-0.8446044921875,-0.3458251953125,0.2054443359375,16.05224609375,0.3662109375,9.521484375
36654.339634125,-0.8446044921875,-0.3486328125,0.2054443359375,16.05224609375,0.3662109375,9.521484375
36654.339863833,-0.8446044921875,-0.3486328125,0.1868896484375,16.05224609375,0.3662109375,9.521484375
36654.339991,-0.8446044921875,-0.3486328125,0.1868896484375,16.05224609375,0.54931640625,9.521484375
36654.368208875,-0.8006591796875,-0.3486328125,0.1868896484375,16.05224609375,0.54931640625,9.521484375
36654.396408541,-0.8006591796875,-0.3587646484375,0.1868896484375,16.05224609375,0.54931640625,9.521484375
36654.40128275,-0.8006591796875,-0.3587646484375,0.1729736328125,16.05224609375,0.54931640625,9.521484375
36654.401362083,-0.8006591796875,-0.3587646484375,0.1729736328125,16.05224609375,-5.67626953125,9.521484375
36654.401436083,-0.8006591796875,-0.3587646484375,0.1729736328125,16.05224609375,-5.67626953125,-3.0517578125
36654.418422333,-0.8006591796875,-0.3656005859375,0.1729736328125,16.05224609375,-5.67626953125,-3.0517578125
36654.418502041,-0.8006591796875,-0.3656005859375,0.1953125,16.05224609375,-5.67626953125,-3.0517578125
36654.428415708,-0.8006591796875,-0.3656005859375,0.1953125,-7.87353515625,-5.67626953125,-3.0517578125
36654.434521708,-0.8006591796875,-0.3656005859375,0.1953125,-7.87353515625,-5.67626953125,-4.39453125
36654.472759125,-0.795654296875,-0.3656005859375,0.1953125,-7.87353515625,-5.67626953125,-4.39453125
36654.477152833,-0.795654296875,-0.3409423828125,0.1953125,-7.87353515625,-5.67626953125,-4.39453125
36654.477251083,-0.795654296875,-0.3409423828125,0.140380859375,-7.87353515625,-5.67626953125,-4.39453125
36654.477338541,-0.795654296875,-0.3409423828125,0.140380859375,-14.0380859375,-5.67626953125,-4.39453125
36654.501537958,-0.8199462890625,-0.3409423828125,0.140380859375,-14.0380859375,-5.67626953125,-4.39453125
36654.501619,-0.8199462890625,-0.6002197265625,0.140380859375,-14.0380859375,-5.67626953125,-4.39453125
36654.501689541,-0.8199462890625,-0.6002197265625,0.09033203125,-14.0380859375,-5.67626953125,-4.39453125
36654.503552791,-0.8199462890625,-0.6002197265625,0.09033203125,-14.0380859375,9.82666015625,-4.39453125
36654.503711125,-0.8199462890625,-0.6002197265625,0.09033203125,-14.0380859375,9.82666015625,-0.8544921875
36654.519054375,-0.558837890625,-0.6002197265625,0.09033203125,-14.0380859375,9.82666015625,-0.8544921875
36654.519259541,-0.558837890625,-0.343505859375,0.09033203125,-14.0380859375,9.82666015625,-0.8544921875
36654.519374083,-0.558837890625,-0.343505859375,0.2586669921875,-14.0380859375,9.82666015625,-0.8544921875
36654.548329166,-0.558837890625,-0.343505859375,0.2586669921875,-14.0380859375,17.27294921875,-0.8544921875
36654.548510291,-0.558837890625,-0.343505859375,0.2586669921875,-14.0380859375,17.27294921875,-11.90185546875
36654.568829791,-0.53955078125,-0.343505859375,0.2586669921875,-14.0380859375,17.27294921875,-11.90185546875
36654.568915666,-0.53955078125,-0.4136962890625,0.2586669921875,-14.0380859375,17.27294921875,-11.90185546875
36654.568989291,-0.53955078125,-0.4136962890625,0.2586669921875,-14.0380859375,9.58251953125,-11.90185546875
36654.578371875,-0.53955078125,-0.4136962890625,0.2586669921875,-14.0380859375,9.58251953125,-14.58740234375
36654.578544,-0.524169921875,-0.4136962890625,0.2586669921875,-14.0380859375,9.58251953125,-14.58740234375
36654.593658125,-0.524169921875,-0.4400634765625,0.2586669921875,-14.0380859375,9.58251953125,-14.58740234375
36654.593818,-0.524169921875,-0.4400634765625,0.2509765625,-14.0380859375,9.58251953125,-14.58740234375
36654.594579208,-0.524169921875,-0.4400634765625,0.2509765625,-14.0380859375,-1.52587890625,-14.58740234375
36654.594744583,-0.524169921875,-0.4400634765625,0.2509765625,-14.0380859375,-1.52587890625,-4.39453125
36654.607786458,-0.6212158203125,-0.4400634765625,0.2509765625,-14.0380859375,-1.52587890625,-4.39453125
36654.608500666,-0.6212158203125,-0.45068359375,0.2509765625,-14.0380859375,-1.52587890625,-4.39453125
36654.609716416,-0.6212158203125,-0.45068359375,0.2601318359375,-14.0380859375,-1.52587890625,-4.39453125
36654.62367525,-0.6212158203125,-0.45068359375,0.2601318359375,-14.0380859375,-10.92529296875,-4.39453125
36654.6238185,-0.6212158203125,-0.45068359375,0.2601318359375,-14.0380859375,-10.92529296875,-0.67138671875
36654.638344583,-0.6446533203125,-0.45068359375,0.2601318359375,-14.0380859375,-10.92529296875,-0.67138671875
36654.638496416,-0.6446533203125,-0.5343017578125,0.2601318359375,-14.0380859375,-10.92529296875,-0.67138671875
36654.638998916,-0.6446533203125,-0.5343017578125,0.2257080078125,-14.0380859375,-10.92529296875,-0.67138671875
36654.653905625,-0.6446533203125,-0.5343017578125,0.2257080078125,-14.0380859375,-13.5498046875,-0.67138671875
36654.654074125,-0.6446533203125,-0.5343017578125,0.2257080078125,-14.0380859375,-13.5498046875,-0.30517578125
36654.668553125,-0.6529541015625,-0.5343017578125,0.2257080078125,-14.0380859375,-13.5498046875,-0.30517578125
36654.668730791,-0.6529541015625,-0.5328369140625,0.2257080078125,-14.0380859375,-13.5498046875,-0.30517578125
36654.684513416,-0.6529541015625,-0.5328369140625,0.1971435546875,-14.0380859375,-13.5498046875,-0.30517578125
36654.684589166,-0.6529541015625,-0.5328369140625,0.1971435546875,-14.0380859375,-13.36669921875,-0.30517578125
36654.684660583,-0.6529541015625,-0.5328369140625,0.1971435546875,-14.0380859375,-13.36669921875,0.91552734375
36654.701315333,-0.625244140625,-0.5328369140625,0.1971435546875,-14.0380859375,-13.36669921875,0.91552734375
36654.701390666,-0.625244140625,-0.498046875,0.1971435546875,-14.0380859375,-13.36669921875,0.91552734375
36654.701460333,-0.625244140625,-0.498046875,0.174072265625,-14.0380859375,-13.36669921875,0.91552734375
36654.728963666,-0.625244140625,-0.498046875,0.174072265625,-14.0380859375,-13.427734375,0.91552734375
36654.73455375,-0.625244140625,-0.498046875,0.174072265625,-14.0380859375,-13.427734375,4.2724609375
36654.734645875,-0.62939453125,-0.498046875,0.174072265625,-14.0380859375,-13.427734375,4.2724609375
36654.734766,-0.62939453125,-0.4757080078125,0.174072265625,-14.0380859375,-13.427734375,4.2724609375
36654.744582666,-0.62939453125,-0.4757080078125,0.174072265625,-14.0380859375,-11.1083984375,4.2724609375
36654.751042291,-0.62939453125,-0.4757080078125,0.174072265625,-14.0380859375,-11.1083984375,10.07080078125
36654.77317575,-0.616943359375,-0.4757080078125,0.174072265625,-14.0380859375,-11.1083984375,10.07080078125
36654.773344875,-0.616943359375,-0.5054931640625,0.174072265625,-14.0380859375,-11.1083984375,10.07080078125
36654.788223041,-0.616943359375,-0.5054931640625,0.14599609375,-14.0380859375,-11.1083984375,10.07080078125
36654.788383083,-0.616943359375,-0.5054931640625,0.14599609375,19.04296875,-11.1083984375,10.07080078125
36654.78927625,-0.625244140625,-0.5054931640625,0.14599609375,19.04296875,-11.1083984375,10.07080078125
36654.80333875,-0.625244140625,-0.4493408203125,0.14599609375,19.04296875,-11.1083984375,10.07080078125
36654.803464375,-0.625244140625,-0.4493408203125,0.14599609375,18.24951171875,-11.1083984375,10.07080078125
36654.804090416,-0.625244140625,-0.4493408203125,0.14599609375,18.24951171875,0.8544921875,10.07080078125
36654.818387583,-0.625244140625,-0.4493408203125,0.14599609375,18.24951171875,0.8544921875,17.39501953125
36654.818533458,-0.638671875,-0.4493408203125,0.14599609375,18.24951171875,0.8544921875,17.39501953125
36654.819385583,-0.638671875,-0.475830078125,0.14599609375,18.24951171875,0.8544921875,17.39501953125
36654.821963458,-0.638671875,-0.475830078125,0.1510009765625,18.24951171875,0.8544921875,17.39501953125
36654.834440791,-0.638671875,-0.475830078125,0.1510009765625,18.24951171875,4.39453125,17.39501953125
36654.834515541,-0.638671875,-0.475830078125,0.1510009765625,18.24951171875,4.39453125,19.71435546875
36654.893604166,-0.5777587890625,-0.475830078125,0.1510009765625,18.24951171875,4.39453125,19.71435546875
36654.893803166,-0.5777587890625,-0.4754638671875,0.1510009765625,18.24951171875,4.39453125,19.71435546875
36654.923017583,-0.5777587890625,-0.4754638671875,0.1400146484375,18.24951171875,4.39453125,19.71435546875
36654.954457625,-0.5777587890625,-0.4754638671875,0.1400146484375,18.24951171875,7.01904296875,19.71435546875
36654.968636916,-0.68310546875,-0.4754638671875,0.1400146484375,18.24951171875,7.01904296875,19.71435546875
36654.968858875,-0.68310546875,-0.4332275390625,0.1400146484375,18.24951171875,7.01904296875,19.71435546875
36654.96895425,-0.68310546875,-0.4332275390625,0.1400146484375,7.080078125,7.01904296875,19.71435546875
36654.9692775,-0.68310546875,-0.4332275390625,0.1400146484375,7.080078125,7.01904296875,17.9443359375
36654.998682166,-0.76025390625,-0.4332275390625,0.1400146484375,7.080078125,7.01904296875,17.9443359375
36655.02882025,-0.76025390625,-0.388427734375,0.1400146484375,7.080078125,7.01904296875,17.9443359375
36655.043693916,-0.76025390625,-0.388427734375,0.1876220703125,7.080078125,7.01904296875,17.9443359375
36655.043874458,-0.76025390625,-0.388427734375,0.1876220703125,7.080078125,13.0615234375,17.9443359375
36655.044483125,-0.7867431640625,-0.388427734375,0.1876220703125,7.080078125,13.0615234375,17.9443359375
36655.044644708,-0.7867431640625,-0.388427734375,0.1434326171875,7.080078125,13.0615234375,17.9443359375
36655.088432666,-0.7867431640625,-0.388427734375,0.1434326171875,7.080078125,10.7421875,17.9443359375
36655.11917225,-0.7867431640625,-0.388427734375,0.1434326171875,7.080078125,10.7421875,-2.86865234375
36655.119455416,-0.79638671875,-0.388427734375,0.1434326171875,7.080078125,10.7421875,-2.86865234375
36655.119599333,-0.79638671875,-0.274169921875,0.1434326171875,7.080078125,10.7421875,-2.86865234375
36655.133937458,-0.79638671875,-0.274169921875,0.1434326171875,7.080078125,13.3056640625,-2.86865234375
36655.149175291,-0.9456787109375,-0.274169921875,0.1434326171875,7.080078125,13.3056640625,-2.86865234375
36655.149473916,-0.9456787109375,-0.306640625,0.1434326171875,7.080078125,13.3056640625,-2.86865234375
36655.149600791,-0.9456787109375,-0.306640625,0.3316650390625,7.080078125,13.3056640625,-2.86865234375
36655.14968625,-0.9456787109375,-0.306640625,0.3316650390625,7.080078125,15.380859375,-2.86865234375
36655.163208916,-0.9676513671875,-0.306640625,0.3316650390625,7.080078125,15.380859375,-2.86865234375
36655.163395375,-0.9676513671875,-0.340087890625,0.3316650390625,7.080078125,15.380859375,-2.86865234375
36655.16502725,-0.9676513671875,-0.340087890625,0.3111572265625,7.080078125,15.380859375,-2.86865234375
36655.193258583,-0.9676513671875,-0.340087890625,0.3111572265625,7.080078125,4.08935546875,-2.86865234375
36655.194751916,-0.9676513671875,-0.340087890625,0.3111572265625,7.080078125,4.08935546875,-33.447265625
36655.218165125,-1.0697021484375,-0.340087890625,0.3111572265625,7.080078125,4.08935546875,-33.447265625
36655.218239583,-1.0697021484375,-0.2952880859375,0.3111572265625,7.080078125,4.08935546875,-33.447265625
36655.218309791,-1.0697021484375,-0.2952880859375,0.3572998046875,7.080078125,4.08935546875,-33.447265625
36655.223920791,-1.0924072265625,-0.2952880859375,0.3572998046875,7.080078125,4.08935546875,-33.447265625
36655.224056125,-1.0924072265625,-0.2821044921875,0.3572998046875,7.080078125,4.08935546875,-33.447265625
36655.225085833,-1.0924072265625,-0.2821044921875,0.3756103515625,7.080078125,4.08935546875,-33.447265625
36655.23885,-1.0924072265625,-0.2821044921875,0.3756103515625,7.080078125,-10.3759765625,-33.447265625
36655.238992458,-1.0924072265625,-0.2821044921875,0.3756103515625,7.080078125,-10.3759765625,-44.7998046875
36655.253413916,-1.230712890625,-0.2821044921875,0.3756103515625,7.080078125,-10.3759765625,-44.7998046875
36655.253490041,-1.230712890625,-0.2332763671875,0.3756103515625,7.080078125,-10.3759765625,-44.7998046875
36655.254426458,-1.230712890625,-0.2332763671875,0.27685546875,7.080078125,-10.3759765625,-44.7998046875
36655.268257875,-1.230712890625,-0.2332763671875,0.27685546875,7.080078125,-19.8974609375,-44.7998046875
36655.268417791,-1.230712890625,-0.2332763671875,0.27685546875,7.080078125,-19.8974609375,-45.41015625
36655.284614166,-1.286865234375,-0.2332763671875,0.27685546875,7.080078125,-19.8974609375,-45.41015625
36655.284687166,-1.286865234375,-0.2044677734375,0.27685546875,7.080078125,-19.8974609375,-45.41015625
36655.284756583,-1.286865234375,-0.2044677734375,0.2637939453125,7.080078125,-19.8974609375,-45.41015625
36655.328652208,-1.286865234375,-0.2044677734375,0.2637939453125,7.080078125,-18.61572265625,-45.41015625
36655.328920916,-1.286865234375,-0.2044677734375,0.2637939453125,7.080078125,-18.61572265625,-41.8701171875
36655.329056166,-1.3870849609375,-0.2044677734375,0.2637939453125,7.080078125,-18.61572265625,-41.8701171875
36655.329405125,-1.3870849609375,-0.21435546875,0.2637939453125,7.080078125,-18.61572265625,-41.8701171875
36655.351560833,-1.3870849609375,-0.21435546875,0.2637939453125,7.080078125,-16.90673828125,-41.8701171875
36655.351646833,-1.3870849609375,-0.21435546875,0.2637939453125,7.080078125,-16.90673828125,-33.447265625
36655.373628625,-1.353759765625,-0.21435546875,0.2637939453125,7.080078125,-16.90673828125,-33.447265625
36655.388550333,-1.353759765625,-0.2193603515625,0.2637939453125,7.080078125,-16.90673828125,-33.447265625
36655.388708125,-1.353759765625,-0.2193603515625,0.1739501953125,7.080078125,-16.90673828125,-33.447265625
36655.389541833,-1.353759765625,-0.2193603515625,0.1739501953125,-3.84521484375,-16.90673828125,-33.447265625
36655.389688875,-1.3270263671875,-0.2193603515625,0.1739501953125,-3.84521484375,-16.90673828125,-33.447265625
36655.403291625,-1.3270263671875,-0.2193603515625,0.2027587890625,-3.84521484375,-16.90673828125,-33.447265625
36655.403439166,-1.3270263671875,-0.2193603515625,0.2027587890625,1.52587890625,-16.90673828125,-33.447265625
36655.404799666,-1.3270263671875,-0.2193603515625,0.2027587890625,1.52587890625,-4.45556640625,-33.447265625
36655.418277333,-1.265625,-0.2193603515625,0.2027587890625,1.52587890625,-4.45556640625,-33.447265625
36655.41845275,-1.265625,-0.2470703125,0.2027587890625,1.52587890625,-4.45556640625,-33.447265625
36655.419190958,-1.265625,-0.2470703125,0.2255859375,1.52587890625,-4.45556640625,-33.447265625
36655.4794125,-1.265625,-0.2470703125,0.2255859375,1.52587890625,0.18310546875,-33.447265625
36655.479614416,-1.265625,-0.2470703125,0.2255859375,1.52587890625,0.18310546875,-8.4228515625
36655.480147041,-1.221435546875,-0.2470703125,0.2255859375,1.52587890625,0.18310546875,-8.4228515625
36655.480359625,-1.221435546875,-0.241455078125,0.2255859375,1.52587890625,0.18310546875,-8.4228515625
36655.502080166,-1.221435546875,-0.241455078125,0.2255859375,1.52587890625,3.5400390625,-8.4228515625
36655.50845025,-1.221435546875,-0.241455078125,0.2255859375,1.52587890625,3.5400390625,-4.2724609375
36655.538713791,-1.052001953125,-0.241455078125,0.2255859375,1.52587890625,3.5400390625,-4.2724609375
36655.538930958,-1.052001953125,-0.201416015625,0.2255859375,1.52587890625,3.5400390625,-4.2724609375
36655.540128666,-1.052001953125,-0.201416015625,0.237060546875,1.52587890625,3.5400390625,-4.2724609375
36655.583878125,-1.052001953125,-0.201416015625,0.237060546875,1.52587890625,3.23486328125,-4.2724609375
36655.584201083,-1.052001953125,-0.201416015625,0.237060546875,1.52587890625,3.23486328125,6.7138671875
36655.584585083,-0.941162109375,-0.201416015625,0.237060546875,1.52587890625,3.23486328125,6.7138671875
36655.600977541,-0.941162109375,-0.205810546875,0.237060546875,1.52587890625,3.23486328125,6.7138671875
36655.601162291,-0.941162109375,-0.205810546875,0.237060546875,1.52587890625,-0.8544921875,6.7138671875
36655.618084541,-0.941162109375,-0.205810546875,0.237060546875,1.52587890625,-0.8544921875,8.72802734375
36655.643756125,-0.9273681640625,-0.205810546875,0.237060546875,1.52587890625,-0.8544921875,8.72802734375
36655.643923583,-0.9273681640625,-0.2220458984375,0.237060546875,1.52587890625,-0.8544921875,8.72802734375
36655.644382875,-0.9273681640625,-0.2220458984375,0.2393798828125,1.52587890625,-0.8544921875,8.72802734375
36655.644513875,-0.9273681640625,-0.2220458984375,0.2393798828125,1.52587890625,-3.2958984375,8.72802734375
36655.673641416,-0.9365234375,-0.2220458984375,0.2393798828125,1.52587890625,-3.2958984375,8.72802734375
36655.674848791,-0.9365234375,-0.233642578125,0.2393798828125,1.52587890625,-3.2958984375,8.72802734375
36655.674984541,-0.9365234375,-0.233642578125,0.243408203125,1.52587890625,-3.2958984375,8.72802734375
36655.703550958,-0.9365234375,-0.233642578125,0.243408203125,1.52587890625,-5.0048828125,8.72802734375
36655.703710666,-0.9708251953125,-0.233642578125,0.243408203125,1.52587890625,-5.0048828125,8.72802734375
36655.704544666,-0.9708251953125,-0.2667236328125,0.243408203125,1.52587890625,-5.0048828125,8.72802734375
36655.704711416,-0.9708251953125,-0.2667236328125,0.207763671875,1.52587890625,-5.0048828125,8.72802734375
36655.718378,-0.9708251953125,-0.2667236328125,0.207763671875,1.52587890625,-6.4697265625,8.72802734375
36655.718490833,-0.9708251953125,-0.2667236328125,0.207763671875,1.52587890625,-6.4697265625,4.69970703125
NEW_REP,,,,,,
36655.764910125,-0.9952392578125,-0.2667236328125,0.207763671875,1.52587890625,-6.4697265625,4.69970703125
36655.765027958,-0.9952392578125,-0.2437744140625,0.207763671875,1.52587890625,-6.4697265625,4.69970703125
36655.765140083,-0.9952392578125,-0.2437744140625,0.2293701171875,1.52587890625,-6.4697265625,4.69970703125
36655.765178666,-0.9952392578125,-0.2437744140625,0.2293701171875,1.52587890625,-4.638671875,4.69970703125
36655.793816666,-1.066162109375,-0.2437744140625,0.2293701171875,1.52587890625,-4.638671875,4.69970703125
36655.808308,-1.066162109375,-0.2401123046875,0.2293701171875,1.52587890625,-4.638671875,4.69970703125
36655.808391583,-1.066162109375,-0.2401123046875,0.2269287109375,1.52587890625,-4.638671875,4.69970703125
36655.809444166,-1.066162109375,-0.2401123046875,0.2269287109375,-3.47900390625,-4.638671875,4.69970703125
36655.80952025,-1.09033203125,-0.2401123046875,0.2269287109375,-3.47900390625,-4.638671875,4.69970703125
36655.823148041,-1.09033203125,-0.2401123046875,0.216796875,-3.47900390625,-4.638671875,4.69970703125
36655.824571,-1.09033203125,-0.2401123046875,0.216796875,-0.30517578125,-4.638671875,4.69970703125
36655.824644375,-1.09033203125,-0.2401123046875,0.216796875,-0.30517578125,-7.50732421875,4.69970703125
36655.869036291,-1.1136474609375,-0.2401123046875,0.216796875,-0.30517578125,-7.50732421875,4.69970703125
36655.869303416,-1.1136474609375,-0.2686767578125,0.216796875,-0.30517578125,-7.50732421875,4.69970703125
36655.869719125,-1.1136474609375,-0.2686767578125,0.2120361328125,-0.30517578125,-7.50732421875,4.69970703125
36655.87119575,-1.1136474609375,-0.2686767578125,0.2120361328125,-1.220703125,-7.50732421875,4.69970703125
36655.900076875,-1.1375732421875,-0.2686767578125,0.2120361328125,-1.220703125,-7.50732421875,4.69970703125
36655.9001185,-1.1375732421875,-0.282958984375,0.2120361328125,-1.220703125,-7.50732421875,4.69970703125
36655.900152708,-1.1375732421875,-0.282958984375,0.19189453125,-1.220703125,-7.50732421875,4.69970703125
36655.900185083,-1.1375732421875,-0.282958984375,0.19189453125,-1.220703125,-9.033203125,4.69970703125
36655.900217541,-1.1375732421875,-0.282958984375,0.19189453125,-1.220703125,-9.033203125,19.83642578125
36655.928311458,-1.177490234375,-0.282958984375,0.19189453125,-1.220703125,-9.033203125,19.83642578125
36655.92840525,-1.177490234375,-0.31591796875,0.19189453125,-1.220703125,-9.033203125,19.83642578125
36655.928438416,-1.177490234375,-0.31591796875,0.2108154296875,-1.220703125,-9.033203125,19.83642578125
36655.929284625,-1.177490234375,-0.31591796875,0.2108154296875,-0.06103515625,-9.033203125,19.83642578125
36655.949777958,-1.19287109375,-0.31591796875,0.2108154296875,-0.06103515625,-9.033203125,19.83642578125
36655.958300416,-1.19287109375,-0.3509521484375,0.2108154296875,-0.06103515625,-9.033203125,19.83642578125
36655.958353375,-1.19287109375,-0.3509521484375,0.2203369140625,-0.06103515625,-9.033203125,19.83642578125
36656.003449875,-1.19287109375,-0.3509521484375,0.2203369140625,-0.06103515625,-7.4462890625,19.83642578125
36656.048473583,-1.19287109375,-0.3509521484375,0.2203369140625,-0.06103515625,-7.4462890625,29.60205078125
36656.048795458,-1.212890625,-0.3509521484375,0.2203369140625,-0.06103515625,-7.4462890625,29.60205078125
36656.049274708,-1.212890625,-0.375,0.2203369140625,-0.06103515625,-7.4462890625,29.60205078125
36656.049393333,-1.212890625,-0.375,0.2203369140625,-0.06103515625,-9.94873046875,29.60205078125
36656.093841458,-1.2357177734375,-0.375,0.2203369140625,-0.06103515625,-9.94873046875,29.60205078125
36656.093937583,-1.2357177734375,-0.3138427734375,0.2203369140625,-0.06103515625,-9.94873046875,29.60205078125
36656.093971083,-1.2357177734375,-0.3138427734375,0.223388671875,-0.06103515625,-9.94873046875,29.60205078125
36656.10824625,-1.2357177734375,-0.3138427734375,0.223388671875,-0.06103515625,-12.75634765625,29.60205078125
36656.108287458,-1.1993408203125,-0.3138427734375,0.223388671875,-0.06103515625,-12.75634765625,29.60205078125
36656.108353833,-1.1993408203125,-0.2755126953125,0.223388671875,-0.06103515625,-12.75634765625,29.60205078125
36656.169185416,-1.1993408203125,-0.2755126953125,0.188720703125,-0.06103515625,-12.75634765625,29.60205078125
36656.169501791,-1.1993408203125,-0.2755126953125,0.188720703125,-0.06103515625,-9.46044921875,29.60205078125
36656.169618208,-1.1993408203125,-0.2755126953125,0.188720703125,-0.06103515625,-9.46044921875,36.62109375
36656.169871,-1.0799560546875,-0.2755126953125,0.188720703125,-0.06103515625,-9.46044921875,36.62109375
36656.186269708,-1.0799560546875,-0.2755126953125,0.159912109375,-0.06103515625,-9.46044921875,36.62109375
36656.186394416,-1.0799560546875,-0.2755126953125,0.159912109375,21.30126953125,-9.46044921875,36.62109375
36656.186490208,-1.0799560546875,-0.2755126953125,0.159912109375,21.30126953125,-6.16455078125,36.62109375
36656.228611541,-0.98095703125,-0.2755126953125,0.159912109375,21.30126953125,-6.16455078125,36.62109375
36656.228891458,-0.98095703125,-0.302734375,0.159912109375,21.30126953125,-6.16455078125,36.62109375
36656.273834625,-0.98095703125,-0.302734375,0.1444091796875,21.30126953125,-6.16455078125,36.62109375
36656.274077041,-0.98095703125,-0.302734375,0.1444091796875,11.53564453125,-6.16455078125,36.62109375
36656.274619666,-0.9989013671875,-0.302734375,0.1444091796875,11.53564453125,-6.16455078125,36.62109375
36656.274828458,-0.9989013671875,-0.302734375,0.1065673828125,11.53564453125,-6.16455078125,36.62109375
36656.303976166,-0.9989013671875,-0.302734375,0.1065673828125,11.53564453125,5.79833984375,36.62109375
36656.304247958,-0.9989013671875,-0.302734375,0.1065673828125,11.53564453125,5.79833984375,14.5263671875
36656.364590666,-0.73876953125,-0.302734375,0.1065673828125,11.53564453125,5.79833984375,14.5263671875
36656.371608208,-0.73876953125,-0.3212890625,0.1065673828125,11.53564453125,5.79833984375,14.5263671875
36656.3718665,-0.73876953125,-0.3212890625,0.1065673828125,11.53564453125,16.17431640625,14.5263671875
36656.371968,-0.73876953125,-0.3212890625,0.1065673828125,11.53564453125,16.17431640625,-1.8310546875
36656.378599375,-0.73876953125,-0.4112548828125,0.1065673828125,11.53564453125,16.17431640625,-1.8310546875
36656.378906083,-0.73876953125,-0.4112548828125,0.1259765625,11.53564453125,16.17431640625,-1.8310546875
36656.379515541,-0.73876953125,-0.4112548828125,0.1259765625,36.4990234375,16.17431640625,-1.8310546875
36656.401591666,-0.73876953125,-0.4112548828125,0.1259765625,36.4990234375,16.17431640625,-8.23974609375
36656.423734416,-0.6134033203125,-0.4112548828125,0.1259765625,36.4990234375,16.17431640625,-8.23974609375
36656.423911333,-0.6134033203125,-0.4586181640625,0.1259765625,36.4990234375,16.17431640625,-8.23974609375
36656.425485208,-0.6134033203125,-0.4586181640625,0.176025390625,36.4990234375,16.17431640625,-8.23974609375
36656.42563875,-0.6134033203125,-0.4586181640625,0.176025390625,-0.18310546875,16.17431640625,-8.23974609375
36656.438907541,-0.5560302734375,-0.4586181640625,0.176025390625,-0.18310546875,16.17431640625,-8.23974609375
36656.453367458,-0.5560302734375,-0.410888671875,0.176025390625,-0.18310546875,16.17431640625,-8.23974609375
36656.453567791,-0.5560302734375,-0.410888671875,0.1541748046875,-0.18310546875,16.17431640625,-8.23974609375
36656.468375416,-0.5560302734375,-0.410888671875,0.1541748046875,-0.18310546875,17.88330078125,-8.23974609375
36656.468573875,-0.5560302734375,-0.410888671875,0.1541748046875,-0.18310546875,17.88330078125,-40.52734375
36656.46868225,-0.6021728515625,-0.410888671875,0.1541748046875,-0.18310546875,17.88330078125,-40.52734375
36656.512590541,-0.6021728515625,-0.423828125,0.1541748046875,-0.18310546875,17.88330078125,-40.52734375
36656.514278791,-0.6021728515625,-0.423828125,0.1541748046875,-0.18310546875,2.3193359375,-40.52734375
36656.534821541,-0.6021728515625,-0.423828125,0.1541748046875,-0.18310546875,2.3193359375,-45.654296875
36656.60397825,-0.5281982421875,-0.423828125,0.1541748046875,-0.18310546875,2.3193359375,-45.654296875
36656.635157083,-0.5281982421875,-0.423828125,0.3013916015625,-0.18310546875,2.3193359375,-45.654296875
36656.635598875,-0.5281982421875,-0.423828125,0.3013916015625,-19.83642578125,2.3193359375,-45.654296875
36656.635747333,-0.5281982421875,-0.423828125,0.3013916015625,-19.83642578125,2.3193359375,-44.73876953125
36656.636025,-0.5281982421875,-0.3968505859375,0.3013916015625,-19.83642578125,2.3193359375,-44.73876953125
36656.668272958,-0.5281982421875,-0.3968505859375,0.3013916015625,4.150390625,2.3193359375,-44.73876953125
36656.668356791,-0.5281982421875,-0.3968505859375,0.3013916015625,4.150390625,3.173828125,-44.73876953125
36656.723978791,-0.5281982421875,-0.3968505859375,0.3013916015625,4.150390625,3.173828125,-8.72802734375
36656.724451166,-0.6123046875,-0.3968505859375,0.3013916015625,4.150390625,3.173828125,-8.72802734375
36656.724621791,-0.6123046875,-0.5084228515625,0.3013916015625,4.150390625,3.173828125,-8.72802734375
36656.7248465,-0.6123046875,-0.5084228515625,0.1929931640625,4.150390625,3.173828125,-8.72802734375
36656.751666791,-0.6123046875,-0.5084228515625,0.1929931640625,4.150390625,-3.41796875,-8.72802734375
36656.751764791,-0.6123046875,-0.5084228515625,0.1929931640625,4.150390625,-3.41796875,18.61572265625
36656.769040166,-0.575439453125,-0.5084228515625,0.1929931640625,4.150390625,-3.41796875,18.61572265625
36656.769260416,-0.575439453125,-0.4952392578125,0.1929931640625,4.150390625,-3.41796875,18.61572265625
36656.769378541,-0.575439453125,-0.4952392578125,0.0985107421875,4.150390625,-3.41796875,18.61572265625
36656.77044725,-0.575439453125,-0.4952392578125,0.0985107421875,-10.92529296875,-3.41796875,18.61572265625
36656.784794875,-0.5648193359375,-0.4952392578125,0.0985107421875,-10.92529296875,-3.41796875,18.61572265625
36656.784870416,-0.5648193359375,-0.491455078125,0.0985107421875,-10.92529296875,-3.41796875,18.61572265625
36656.829943375,-0.5648193359375,-0.491455078125,0.08984375,-10.92529296875,-3.41796875,18.61572265625
36656.83020825,-0.5648193359375,-0.491455078125,0.08984375,-10.92529296875,-7.01904296875,18.61572265625
36656.830341541,-0.5648193359375,-0.491455078125,0.08984375,-10.92529296875,-7.01904296875,44.677734375
36656.831285791,-0.4644775390625,-0.491455078125,0.08984375,-10.92529296875,-7.01904296875,44.677734375
36656.851538875,-0.4644775390625,-0.491455078125,0.0926513671875,-10.92529296875,-7.01904296875,44.677734375
36656.851610666,-0.4644775390625,-0.491455078125,0.0926513671875,-11.41357421875,-7.01904296875,44.677734375
36656.851673083,-0.4644775390625,-0.491455078125,0.0926513671875,-11.41357421875,0.6103515625,44.677734375
36656.90388625,-0.649169921875,-0.491455078125,0.0926513671875,-11.41357421875,0.6103515625,44.677734375
36656.933751458,-0.649169921875,-0.5111083984375,0.0926513671875,-11.41357421875,0.6103515625,44.677734375
36656.93400375,-0.649169921875,-0.5111083984375,0.12158203125,-11.41357421875,0.6103515625,44.677734375
36656.935090625,-0.649169921875,-0.5111083984375,0.12158203125,-7.9345703125,0.6103515625,44.677734375
36656.935326833,-0.683349609375,-0.5111083984375,0.12158203125,-7.9345703125,0.6103515625,44.677734375
36656.978991291,-0.683349609375,-0.5111083984375,0.13427734375,-7.9345703125,0.6103515625,44.677734375
36656.9792415,-0.683349609375,-0.5111083984375,0.13427734375,3.41796875,0.6103515625,44.677734375
36656.979363208,-0.683349609375,-0.5111083984375,0.13427734375,3.41796875,10.3759765625,44.677734375
36656.979643625,-0.776123046875,-0.5111083984375,0.13427734375,3.41796875,10.3759765625,44.677734375
36657.0020065,-0.776123046875,-0.5111083984375,0.263916015625,3.41796875,10.3759765625,44.677734375
36657.002093,-0.776123046875,-0.5111083984375,0.263916015625,-2.99072265625,10.3759765625,44.677734375
36657.00217,-0.776123046875,-0.5111083984375,0.263916015625,-2.99072265625,15.07568359375,44.677734375
36657.069293333,-0.9002685546875,-0.5111083984375,0.263916015625,-2.99072265625,15.07568359375,44.677734375
36657.069667375,-0.9002685546875,-0.32568359375,0.263916015625,-2.99072265625,15.07568359375,44.677734375
36657.0700495,-0.9002685546875,-0.32568359375,0.318603515625,-2.99072265625,15.07568359375,44.677734375
36657.070354958,-0.9002685546875,-0.32568359375,0.318603515625,-4.150390625,15.07568359375,44.677734375
36657.085480416,-0.812744140625,-0.32568359375,0.318603515625,-4.150390625,15.07568359375,44.677734375
36657.085577208,-0.812744140625,-0.267578125,0.318603515625,-4.150390625,15.07568359375,44.677734375
36657.085663125,-0.812744140625,-0.267578125,0.3116455078125,-4.150390625,15.07568359375,44.677734375
36657.10277975,-0.812744140625,-0.267578125,0.3116455078125,-4.150390625,11.3525390625,44.677734375
36657.128909458,-0.812744140625,-0.267578125,0.3116455078125,-4.150390625,11.3525390625,-26.67236328125
36657.129120791,-0.9171142578125,-0.267578125,0.3116455078125,-4.150390625,11.3525390625,-26.67236328125
36657.1355165,-0.9171142578125,-0.1429443359375,0.3116455078125,-4.150390625,11.3525390625,-26.67236328125
36657.135613791,-0.9171142578125,-0.1429443359375,0.373779296875,-4.150390625,11.3525390625,-26.67236328125
36657.143882166,-0.9171142578125,-0.1429443359375,0.373779296875,-4.150390625,0.1220703125,-26.67236328125
36657.144057916,-0.9171142578125,-0.1429443359375,0.373779296875,-4.150390625,0.1220703125,-34.0576171875
36657.187848416,-1.043701171875,-0.1429443359375,0.373779296875,-4.150390625,0.1220703125,-34.0576171875
36657.190250208,-1.043701171875,-0.1937255859375,0.373779296875,-4.150390625,0.1220703125,-34.0576171875
36657.190565791,-1.043701171875,-0.1937255859375,0.3348388671875,-4.150390625,0.1220703125,-34.0576171875
36657.190670208,-1.043701171875,-0.1937255859375,0.3348388671875,-4.150390625,-4.82177734375,-34.0576171875
36657.218446875,-0.9359130859375,-0.1937255859375,0.3348388671875,-4.150390625,-4.82177734375,-34.0576171875
36657.21852,-0.9359130859375,-0.1240234375,0.3348388671875,-4.150390625,-4.82177734375,-34.0576171875
36657.218583458,-0.9359130859375,-0.1240234375,0.289306640625,-4.150390625,-4.82177734375,-34.0576171875
36657.218763458,-0.9359130859375,-0.1240234375,0.289306640625,-4.150390625,-11.5966796875,-34.0576171875
36657.218857958,-0.9359130859375,-0.1240234375,0.289306640625,-4.150390625,-11.5966796875,-38.57421875
36657.249218083,-1.303466796875,-0.1240234375,0.289306640625,-4.150390625,-11.5966796875,-38.57421875
36657.249464541,-1.303466796875,-0.152587890625,0.289306640625,-4.150390625,-11.5966796875,-38.57421875
36657.24955325,-1.303466796875,-0.152587890625,0.260986328125,-4.150390625,-11.5966796875,-38.57421875
36657.249816916,-1.303466796875,-0.152587890625,0.260986328125,-6.103515625,-11.5966796875,-38.57421875
