Timestamp,Accel_X,Accel_Y,Accel_Z,Gyro_X,Gyro_Y,Gyro_Z
252889.525035541,0.926513671875,0.0,0.0,0.0,0.0,0.0
252889.525655541,0.9271240234375,0.0,0.0,0.0,0.0,0.0
252889.554734291,0.9345703125,0.0,0.0,0.0,0.0,0.0
252889.555277083,0.9345703125,0.29833984375,0.0,0.0,0.0,0.0
252889.585263583,0.9332275390625,0.29833984375,0.0,0.0,0.0,0.0
252889.599540791,0.9332275390625,0.30908203125,0.0,0.0,0.0,0.0
252889.601335916,0.929931640625,0.30908203125,0.0,0.0,0.0,0.0
252889.601518625,0.929931640625,0.3121337890625,0.0,0.0,0.0,0.0
252889.629534791,0.9259033203125,0.3121337890625,0.0,0.0,0.0,0.0
252889.629706041,0.9259033203125,0.3114013671875,0.0,0.0,0.0,0.0
252889.630263875,0.9259033203125,0.3114013671875,0.0076904296875,0.0,0.0,0.0
252889.660887583,0.920166015625,0.3114013671875,0.0076904296875,0.0,0.0,0.0
252889.66106775,0.920166015625,0.3179931640625,0.0076904296875,0.0,0.0,0.0
252889.67458325,0.91796875,0.3179931640625,0.0076904296875,0.0,0.0,0.0
252889.674753125,0.91796875,0.3199462890625,0.0076904296875,0.0,0.0,0.0
252889.675516833,0.91796875,0.3199462890625,0.0103759765625,0.0,0.0,0.0
252889.707326166,0.920166015625,0.3199462890625,0.0103759765625,0.0,0.0,0.0
252889.70768225,0.920166015625,0.3126220703125,0.0103759765625,0.0,0.0,0.0
252889.707816791,0.920166015625,0.3126220703125,0.014892578125,0.0,0.0,0.0
252889.721752958,0.928955078125,0.3126220703125,0.014892578125,0.0,0.0,0.0
252889.72187875,0.928955078125,0.3138427734375,0.014892578125,0.0,0.0,0.0
252889.721985875,0.928955078125,0.3138427734375,0.0030517578125,0.0,0.0,0.0
252889.737870583,0.928955078125,0.3138427734375,0.0030517578125,0.0,-0.18310546875,0.0
252889.737963583,0.928955078125,0.3138427734375,0.0030517578125,0.0,-0.18310546875,2.8076171875
252889.760007333,0.93017578125,0.3138427734375,0.0030517578125,0.0,-0.18310546875,2.8076171875
252889.778837083,0.93017578125,0.3043212890625,0.0030517578125,0.0,-0.18310546875,2.8076171875
252889.779448625,0.93017578125,0.3043212890625,0.0003662109375,0.0,-0.18310546875,2.8076171875
252889.782238,0.93017578125,0.3043212890625,0.0003662109375,0.0,-0.06103515625,2.8076171875
252889.782316375,0.93017578125,0.3043212890625,0.0003662109375,0.0,-0.06103515625,1.52587890625
252889.794317875,0.93017578125,0.3043212890625,0.0068359375,0.0,-0.06103515625,1.52587890625
252889.7944295,0.93017578125,0.3043212890625,0.0068359375,4.0283203125,-0.06103515625,1.52587890625
252889.795094416,0.93017578125,0.3043212890625,0.0068359375,4.0283203125,-0.30517578125,1.52587890625
252889.80953425,0.9234619140625,0.3043212890625,0.0068359375,4.0283203125,-0.30517578125,1.52587890625
252889.809698708,0.9234619140625,0.3138427734375,0.0068359375,4.0283203125,-0.30517578125,1.52587890625
252889.809745791,0.9234619140625,0.3138427734375,0.0118408203125,4.0283203125,-0.30517578125,1.52587890625
252889.824680166,0.9234619140625,0.3138427734375,0.0118408203125,4.0283203125,0.18310546875,1.52587890625
252889.824737333,0.9234619140625,0.3138427734375,0.0118408203125,4.0283203125,0.18310546875,1.28173828125
252889.854486291,0.9195556640625,0.3138427734375,0.0118408203125,4.0283203125,0.18310546875,1.28173828125
252889.854624916,0.9195556640625,0.2940673828125,0.0118408203125,4.0283203125,0.18310546875,1.28173828125
252889.855649583,0.9195556640625,0.2940673828125,0.0103759765625,4.0283203125,0.18310546875,1.28173828125
252889.85576675,0.9195556640625,0.2940673828125,0.0103759765625,4.0283203125,0.1220703125,1.28173828125
252889.898530666,0.923828125,0.2940673828125,0.0103759765625,4.0283203125,0.1220703125,1.28173828125
252889.900284708,0.923828125,0.3101806640625,0.0103759765625,4.0283203125,0.1220703125,1.28173828125
252889.929610125,0.923828125,0.3101806640625,0.0087890625,4.0283203125,0.1220703125,1.28173828125
252889.929793166,0.923828125,0.3101806640625,0.0087890625,4.0283203125,0.0,1.28173828125
252889.931422875,0.9288330078125,0.3101806640625,0.0087890625,4.0283203125,0.0,1.28173828125
252889.931563666,0.9288330078125,0.3057861328125,0.0087890625,4.0283203125,0.0,1.28173828125
252889.9583435,0.9288330078125,0.3057861328125,0.0087890625,4.0283203125,0.0,1.28173828125
252889.959232375,0.9288330078125,0.3057861328125,0.0087890625,4.0283203125,-0.244140625,1.28173828125
252889.960192125,0.9288330078125,0.3057861328125,0.0087890625,4.0283203125,-0.244140625,0.1220703125
252889.975831125,0.9248046875,0.3057861328125,0.0087890625,4.0283203125,-0.244140625,0.1220703125
252889.975915083,0.9248046875,0.312744140625,0.0087890625,4.0283203125,-0.244140625,0.1220703125
252889.977285666,0.9248046875,0.312744140625,0.0181884765625,4.0283203125,-0.244140625,0.1220703125
252890.020004875,0.9232177734375,0.312744140625,0.0181884765625,4.0283203125,-0.244140625,0.1220703125
252890.020189666,0.9232177734375,0.299560546875,0.0181884765625,4.0283203125,-0.244140625,0.1220703125
252890.034616833,0.9232177734375,0.299560546875,0.01318359375,4.0283203125,-0.244140625,0.1220703125
252890.034791625,0.9232177734375,0.299560546875,0.01318359375,3.72314453125,-0.244140625,0.1220703125
252890.035981333,0.932373046875,0.299560546875,0.01318359375,3.72314453125,-0.244140625,0.1220703125
252890.036150416,0.932373046875,0.31298828125,0.01318359375,3.72314453125,-0.244140625,0.1220703125
NEW_REP,,,,,,
252890.059664041,0.932373046875,0.31298828125,0.01318359375,3.72314453125,-0.79345703125,0.1220703125
252890.05975175,0.932373046875,0.31298828125,0.01318359375,3.72314453125,-0.79345703125,1.40380859375
252890.094942375,0.9267578125,0.31298828125,0.01318359375,3.72314453125,-0.79345703125,1.40380859375
252890.095101583,0.9267578125,0.320556640625,0.01318359375,3.72314453125,-0.79345703125,1.40380859375
252890.101491916,0.9267578125,0.320556640625,0.015380859375,3.72314453125,-0.79345703125,1.40380859375
252890.101608708,0.9267578125,0.320556640625,0.015380859375,1.15966796875,-0.79345703125,1.40380859375
252890.109371916,0.9267578125,0.320556640625,0.0126953125,1.15966796875,-0.79345703125,1.40380859375
252890.109573208,0.9267578125,0.320556640625,0.0126953125,1.64794921875,-0.79345703125,1.40380859375
252890.140087833,0.9267578125,0.320556640625,0.0126953125,1.64794921875,-1.220703125,1.40380859375
252890.1596295,0.91357421875,0.320556640625,0.0126953125,1.64794921875,-1.220703125,1.40380859375
252890.214746666,0.91357421875,0.309814453125,0.0126953125,1.64794921875,-1.220703125,1.40380859375
252890.2148745,0.91357421875,0.309814453125,0.0126953125,1.64794921875,-0.91552734375,1.40380859375
252890.244746333,0.923828125,0.309814453125,0.0126953125,1.64794921875,-0.91552734375,1.40380859375
252890.259554041,0.923828125,0.303466796875,0.0126953125,1.64794921875,-0.91552734375,1.40380859375
252890.259701958,0.923828125,0.303466796875,0.0126953125,1.64794921875,-0.79345703125,1.40380859375
252890.261201916,0.923828125,0.303466796875,0.0126953125,1.64794921875,-0.79345703125,0.42724609375
252890.261329375,0.9228515625,0.303466796875,0.0126953125,1.64794921875,-0.79345703125,0.42724609375
252890.27611225,0.9228515625,0.303466796875,0.0126953125,3.35693359375,-0.79345703125,0.42724609375
252890.276189875,0.9228515625,0.303466796875,0.0126953125,3.35693359375,0.48828125,0.42724609375
252890.276259333,0.9228515625,0.303466796875,0.0126953125,3.35693359375,0.48828125,1.64794921875
252890.304955791,0.9315185546875,0.303466796875,0.0126953125,3.35693359375,0.48828125,1.64794921875
252890.305096958,0.9315185546875,0.3095703125,0.0126953125,3.35693359375,0.48828125,1.64794921875
252890.3056395,0.9315185546875,0.3095703125,0.011474609375,3.35693359375,0.48828125,1.64794921875
252890.305813208,0.9315185546875,0.3095703125,0.011474609375,3.35693359375,0.48828125,1.64794921875
252890.325114833,0.931640625,0.3095703125,0.011474609375,3.35693359375,0.48828125,1.64794921875
252890.334439875,0.931640625,0.30810546875,0.011474609375,3.35693359375,0.48828125,1.64794921875
252890.334544458,0.931640625,0.30810546875,0.0098876953125,3.35693359375,0.48828125,1.64794921875
252890.34148675,0.931640625,0.30810546875,0.0098876953125,3.35693359375,0.54931640625,1.64794921875
252890.34152925,0.931640625,0.30810546875,0.0098876953125,3.35693359375,0.54931640625,0.6103515625
252890.349144416,0.937744140625,0.30810546875,0.0098876953125,3.35693359375,0.54931640625,0.6103515625
252890.349245041,0.937744140625,0.2974853515625,0.0098876953125,3.35693359375,0.54931640625,0.6103515625
252890.350155041,0.937744140625,0.2974853515625,0.0179443359375,3.35693359375,0.54931640625,0.6103515625
252890.364522666,0.937744140625,0.2974853515625,0.0179443359375,3.35693359375,0.732421875,0.6103515625
252890.364630333,0.937744140625,0.2974853515625,0.0179443359375,3.35693359375,0.732421875,0.48828125
252890.379645708,0.9417724609375,0.2974853515625,0.0179443359375,3.35693359375,0.732421875,0.48828125
252890.379758333,0.9417724609375,0.2969970703125,0.0179443359375,3.35693359375,0.732421875,0.48828125
252890.380703208,0.9417724609375,0.2969970703125,0.029052734375,3.35693359375,0.732421875,0.48828125
252890.394471875,0.9417724609375,0.2969970703125,0.029052734375,3.35693359375,0.42724609375,0.48828125
252890.409267625,0.9417724609375,0.2969970703125,0.029052734375,3.35693359375,0.42724609375,0.6103515625
252890.409334833,0.9659423828125,0.2969970703125,0.029052734375,3.35693359375,0.42724609375,0.6103515625
252890.41067975,0.9659423828125,0.3143310546875,0.029052734375,3.35693359375,0.42724609375,0.6103515625
252890.4107395,0.9659423828125,0.3143310546875,0.06494140625,3.35693359375,0.42724609375,0.6103515625
252890.424554583,0.9659423828125,0.3143310546875,0.06494140625,3.35693359375,0.6103515625,0.6103515625
252890.42458875,0.9659423828125,0.3143310546875,0.06494140625,3.35693359375,0.6103515625,1.03759765625
252890.454291125,1.005126953125,0.3143310546875,0.06494140625,3.35693359375,0.6103515625,1.03759765625
252890.4543825,1.005126953125,0.306640625,0.06494140625,3.35693359375,0.6103515625,1.03759765625
252890.456177916,1.005126953125,0.306640625,0.147705078125,3.35693359375,0.6103515625,1.03759765625
252890.456251958,1.005126953125,0.306640625,0.147705078125,6.04248046875,0.6103515625,1.03759765625
252890.484372458,1.000244140625,0.306640625,0.147705078125,6.04248046875,0.6103515625,1.03759765625
252890.48447525,1.000244140625,0.286376953125,0.147705078125,6.04248046875,0.6103515625,1.03759765625
252890.491622,1.000244140625,0.286376953125,0.187744140625,6.04248046875,0.6103515625,1.03759765625
252890.491676875,1.000244140625,0.286376953125,0.187744140625,8.544921875,0.6103515625,1.03759765625
252890.514355625,0.974609375,0.286376953125,0.187744140625,8.544921875,0.6103515625,1.03759765625
252890.514469125,0.974609375,0.311279296875,0.187744140625,8.544921875,0.6103515625,1.03759765625
252890.5156915,0.974609375,0.311279296875,0.337646484375,8.544921875,0.6103515625,1.03759765625
252890.529438083,0.974609375,0.311279296875,0.337646484375,8.544921875,-5.18798828125,1.03759765625
252890.529574416,1.1331787109375,0.311279296875,0.337646484375,8.544921875,-5.18798828125,1.03759765625
252890.531237958,1.1331787109375,0.42578125,0.337646484375,8.544921875,-5.18798828125,1.03759765625
252890.531361583,1.1331787109375,0.42578125,0.6163330078125,8.544921875,-5.18798828125,1.03759765625
252890.54561,1.1331787109375,0.42578125,0.6163330078125,8.544921875,-8.85009765625,1.03759765625
252890.559597625,1.1331787109375,0.42578125,0.6163330078125,8.544921875,-8.85009765625,18.24951171875
252890.575883041,1.2008056640625,0.42578125,0.6163330078125,8.544921875,-8.85009765625,18.24951171875
252890.575967583,1.2008056640625,0.2435302734375,0.6163330078125,8.544921875,-8.85009765625,18.24951171875
252890.576118333,1.2008056640625,0.2435302734375,0.5665283203125,8.544921875,-8.85009765625,18.24951171875
252890.604443291,1.2008056640625,0.2435302734375,0.5665283203125,8.544921875,-34.48486328125,18.24951171875
252890.604606166,1.2008056640625,0.2435302734375,0.5665283203125,8.544921875,-34.48486328125,23.13232421875
252890.605329083,1.22900390625,0.2435302734375,0.5665283203125,8.544921875,-34.48486328125,23.13232421875
252890.625987958,1.22900390625,0.2435302734375,0.5931396484375,8.544921875,-34.48486328125,23.13232421875
252890.635287666,1.22900390625,0.2435302734375,0.5931396484375,23.5595703125,-34.48486328125,23.13232421875
252890.635441625,1.22900390625,0.2435302734375,0.5931396484375,23.5595703125,-67.93212890625,23.13232421875
252890.635717166,1.2120361328125,0.2435302734375,0.5931396484375,23.5595703125,-67.93212890625,23.13232421875
252890.635913625,1.2120361328125,0.33154296875,0.5931396484375,23.5595703125,-67.93212890625,23.13232421875
252890.649385083,1.2120361328125,0.33154296875,0.5931396484375,8.97216796875,-67.93212890625,23.13232421875
252890.649528791,1.2120361328125,0.33154296875,0.5931396484375,8.97216796875,-88.0126953125,23.13232421875
252890.650220125,1.2120361328125,0.33154296875,0.5931396484375,8.97216796875,-88.0126953125,27.34375
252890.681096041,1.214599609375,0.33154296875,0.5931396484375,8.97216796875,-88.0126953125,27.34375
252890.684770208,1.214599609375,0.4532470703125,0.5931396484375,8.97216796875,-88.0126953125,27.34375
252890.684889458,1.214599609375,0.4532470703125,0.547119140625,8.97216796875,-88.0126953125,27.34375
252890.694669583,1.214599609375,0.4532470703125,0.547119140625,19.22607421875,-88.0126953125,27.34375
252890.694842041,1.1995849609375,0.4532470703125,0.547119140625,19.22607421875,-88.0126953125,27.34375
252890.709156791,1.1995849609375,0.4212646484375,0.547119140625,19.22607421875,-88.0126953125,27.34375
252890.709227833,1.1995849609375,0.4212646484375,0.50048828125,19.22607421875,-88.0126953125,27.34375
252890.709610125,1.1995849609375,0.4212646484375,0.50048828125,19.22607421875,-101.25732421875,27.34375
252890.709733875,1.1995849609375,0.4212646484375,0.50048828125,19.22607421875,-101.25732421875,21.91162109375
252890.73944875,1.177734375,0.4212646484375,0.50048828125,19.22607421875,-101.25732421875,21.91162109375
252890.739608041,1.177734375,0.4659423828125,0.50048828125,19.22607421875,-101.25732421875,21.91162109375
252890.740956833,1.177734375,0.4659423828125,0.6102294921875,19.22607421875,-101.25732421875,21.91162109375
252890.755634791,1.177734375,0.4659423828125,0.6102294921875,19.22607421875,-110.3515625,21.91162109375
252890.75578675,1.177734375,0.4659423828125,0.6102294921875,19.22607421875,-110.3515625,19.04296875
252890.78512525,1.1572265625,0.4659423828125,0.6102294921875,19.22607421875,-110.3515625,19.04296875
252890.785290083,1.1572265625,0.485595703125,0.6102294921875,19.22607421875,-110.3515625,19.04296875
252890.792622125,1.1572265625,0.485595703125,0.639892578125,19.22607421875,-110.3515625,19.04296875
252890.792688125,1.1572265625,0.485595703125,0.639892578125,59.99755859375,-110.3515625,19.04296875
252890.799854791,1.11962890625,0.485595703125,0.639892578125,59.99755859375,-110.3515625,19.04296875
252890.800075083,1.11962890625,0.5411376953125,0.639892578125,59.99755859375,-110.3515625,19.04296875
252890.800198791,1.11962890625,0.5411376953125,0.6624755859375,59.99755859375,-110.3515625,19.04296875
252890.815169375,1.11962890625,0.5411376953125,0.6624755859375,59.99755859375,-127.685546875,19.04296875
252890.815343791,1.11962890625,0.5411376953125,0.6624755859375,59.99755859375,-127.685546875,6.28662109375
252890.829452083,1.103271484375,0.5411376953125,0.6624755859375,59.99755859375,-127.685546875,6.28662109375
252890.829600458,1.103271484375,0.568115234375,0.6624755859375,59.99755859375,-127.685546875,6.28662109375
252890.831149875,1.103271484375,0.568115234375,0.706787109375,59.99755859375,-127.685546875,6.28662109375
252890.844156791,1.103271484375,0.568115234375,0.706787109375,59.99755859375,-133.544921875,6.28662109375
252890.844947,1.103271484375,0.568115234375,0.706787109375,59.99755859375,-133.544921875,4.638671875
252890.859343916,1.0616455078125,0.568115234375,0.706787109375,59.99755859375,-133.544921875,4.638671875
252890.859494291,1.0616455078125,0.5347900390625,0.706787109375,59.99755859375,-133.544921875,4.638671875
252890.861001541,1.0616455078125,0.5347900390625,0.6986083984375,59.99755859375,-133.544921875,4.638671875
252890.875801,1.0616455078125,0.5347900390625,0.6986083984375,59.99755859375,-139.95361328125,4.638671875
252890.876046416,1.0616455078125,0.5347900390625,0.6986083984375,59.99755859375,-139.95361328125,1.5869140625
252890.8926415,1.00390625,0.5347900390625,0.6986083984375,59.99755859375,-139.95361328125,1.5869140625
252890.892713125,1.00390625,0.5438232421875,0.6986083984375,59.99755859375,-139.95361328125,1.5869140625
252890.892773666,1.00390625,0.5438232421875,0.739990234375,59.99755859375,-139.95361328125,1.5869140625
252890.919796083,1.00390625,0.5438232421875,0.739990234375,59.99755859375,-143.98193359375,1.5869140625
252890.925715125,1.00390625,0.5438232421875,0.739990234375,59.99755859375,-143.98193359375,0.18310546875
252890.925910416,0.9376220703125,0.5438232421875,0.739990234375,59.99755859375,-143.98193359375,0.18310546875
252890.935165416,0.9376220703125,0.5438232421875,0.750732421875,59.99755859375,-143.98193359375,0.18310546875
252890.935367958,0.9376220703125,0.5438232421875,0.750732421875,76.416015625,-143.98193359375,0.18310546875
252890.9354985,0.9376220703125,0.5438232421875,0.750732421875,76.416015625,-148.74267578125,0.18310546875
252890.96569875,0.86572265625,0.5438232421875,0.750732421875,76.416015625,-148.74267578125,0.18310546875
252890.965954666,0.86572265625,0.505615234375,0.750732421875,76.416015625,-148.74267578125,0.18310546875
252890.96606525,0.86572265625,0.505615234375,0.72119140625,76.416015625,-148.74267578125,0.18310546875
252890.966138666,0.86572265625,0.505615234375,0.72119140625,88.623046875,-148.74267578125,0.18310546875
252890.992169291,0.7674560546875,0.505615234375,0.72119140625,88.623046875,-148.74267578125,0.18310546875
252890.992239375,0.7674560546875,0.42333984375,0.72119140625,88.623046875,-148.74267578125,0.18310546875
252890.9943615,0.7674560546875,0.42333984375,0.72119140625,84.53369140625,-148.74267578125,0.18310546875
252890.994509375,0.7674560546875,0.42333984375,0.72119140625,84.53369140625,-150.5126953125,0.18310546875
252890.996083166,0.7674560546875,0.42333984375,0.72119140625,84.53369140625,-150.5126953125,8.23974609375
252891.00929775,0.62841796875,0.42333984375,0.72119140625,84.53369140625,-150.5126953125,8.23974609375
252891.009424,0.62841796875,0.396728515625,0.72119140625,84.53369140625,-150.5126953125,8.23974609375
252891.010972375,0.62841796875,0.396728515625,0.689208984375,84.53369140625,-150.5126953125,8.23974609375
252891.033495541,0.62841796875,0.396728515625,0.689208984375,84.53369140625,-146.78955078125,8.23974609375
252891.0412625,0.62841796875,0.396728515625,0.689208984375,84.53369140625,-146.78955078125,11.962890625
252891.058770166,0.5343017578125,0.396728515625,0.689208984375,84.53369140625,-146.78955078125,11.962890625
252891.058823708,0.5343017578125,0.396728515625,0.689208984375,84.53369140625,-146.78955078125,11.962890625
252891.058867083,0.5343017578125,0.396728515625,0.6778564453125,84.53369140625,-146.78955078125,11.962890625
252891.0755275,0.5343017578125,0.396728515625,0.6778564453125,84.53369140625,-142.88330078125,11.962890625
252891.075599666,0.5343017578125,0.396728515625,0.6778564453125,84.53369140625,-142.88330078125,13.0615234375
252891.084362833,0.364013671875,0.396728515625,0.6778564453125,84.53369140625,-142.88330078125,13.0615234375
252891.084483833,0.364013671875,0.2181396484375,0.6778564453125,84.53369140625,-142.88330078125,13.0615234375
252891.08538425,0.364013671875,0.2181396484375,0.5567626953125,84.53369140625,-142.88330078125,13.0615234375
252891.100218333,0.364013671875,0.2181396484375,0.5567626953125,84.53369140625,-135.1318359375,13.0615234375
252891.100342125,0.364013671875,0.2181396484375,0.5567626953125,84.53369140625,-135.1318359375,12.0849609375
252891.129754333,0.1859130859375,0.2181396484375,0.5567626953125,84.53369140625,-135.1318359375,12.0849609375
252891.133615833,0.1859130859375,0.1207275390625,0.5567626953125,84.53369140625,-135.1318359375,12.0849609375
252891.133830375,0.1859130859375,0.1207275390625,0.511962890625,84.53369140625,-135.1318359375,12.0849609375
252891.133896833,0.1859130859375,0.1207275390625,0.511962890625,58.10546875,-135.1318359375,12.0849609375
252891.14433175,0.095703125,0.1207275390625,0.511962890625,58.10546875,-135.1318359375,12.0849609375
252891.158708958,0.095703125,0.126220703125,0.511962890625,58.10546875,-135.1318359375,12.0849609375
252891.1588085,0.095703125,0.126220703125,0.433837890625,58.10546875,-135.1318359375,12.0849609375
252891.175279291,0.095703125,0.126220703125,0.433837890625,58.10546875,-122.49755859375,12.0849609375
252891.175337666,0.095703125,0.126220703125,0.433837890625,58.10546875,-122.49755859375,15.0146484375
252891.17547875,-0.0048828125,0.126220703125,0.433837890625,58.10546875,-122.49755859375,15.0146484375
252891.191748291,-0.0048828125,0.126220703125,0.2601318359375,58.10546875,-122.49755859375,15.0146484375
252891.191819125,-0.0048828125,0.126220703125,0.2601318359375,67.32177734375,-122.49755859375,15.0146484375
252891.191872,-0.0048828125,0.126220703125,0.2601318359375,67.32177734375,-112.85400390625,15.0146484375
252891.208284916,-0.1689453125,0.126220703125,0.2601318359375,67.32177734375,-112.85400390625,15.0146484375
252891.208342166,-0.1689453125,-0.1363525390625,0.2601318359375,67.32177734375,-112.85400390625,15.0146484375
252891.2083945,-0.1689453125,-0.1363525390625,0.118896484375,67.32177734375,-112.85400390625,15.0146484375
252891.224973208,-0.1689453125,-0.1363525390625,0.118896484375,67.32177734375,-104.8583984375,15.0146484375
252891.2250375,-0.1689453125,-0.1363525390625,0.118896484375,67.32177734375,-104.8583984375,12.39013671875
252891.234396458,-0.2755126953125,-0.1363525390625,0.118896484375,67.32177734375,-104.8583984375,12.39013671875
252891.23458075,-0.2755126953125,-0.2537841796875,0.118896484375,67.32177734375,-104.8583984375,12.39013671875
252891.241617458,-0.2755126953125,-0.2537841796875,0.0068359375,67.32177734375,-104.8583984375,12.39013671875
252891.249835541,-0.2755126953125,-0.2537841796875,0.0068359375,67.32177734375,-84.65576171875,12.39013671875
252891.249944666,-0.2755126953125,-0.2537841796875,0.0068359375,67.32177734375,-84.65576171875,5.2490234375
252891.265029333,-0.342529296875,-0.2537841796875,0.0068359375,67.32177734375,-84.65576171875,5.2490234375
252891.265233875,-0.342529296875,-0.256591796875,0.0068359375,67.32177734375,-84.65576171875,5.2490234375
252891.265287916,-0.342529296875,-0.256591796875,0.0133056640625,67.32177734375,-84.65576171875,5.2490234375
252891.29450475,-0.342529296875,-0.256591796875,0.0133056640625,67.32177734375,-66.40625,5.2490234375
252891.29465125,-0.342529296875,-0.256591796875,0.0133056640625,67.32177734375,-66.40625,1.03759765625
252891.295695833,-0.4027099609375,-0.256591796875,0.0133056640625,67.32177734375,-66.40625,1.03759765625
252891.310294875,-0.4027099609375,-0.256591796875,-0.0797119140625,67.32177734375,-66.40625,1.03759765625
252891.310462333,-0.4027099609375,-0.256591796875,-0.0797119140625,-11.65771484375,-66.40625,1.03759765625
252891.3105495,-0.4027099609375,-0.256591796875,-0.0797119140625,-11.65771484375,-38.330078125,1.03759765625
252891.325472541,-0.3614501953125,-0.256591796875,-0.0797119140625,-11.65771484375,-38.330078125,1.03759765625
252891.325531875,-0.3614501953125,-0.3023681640625,-0.0797119140625,-11.65771484375,-38.330078125,1.03759765625
252891.325585541,-0.3614501953125,-0.3023681640625,-0.095703125,-11.65771484375,-38.330078125,1.03759765625
252891.341638958,-0.3614501953125,-0.3023681640625,-0.095703125,-11.65771484375,-14.7705078125,1.03759765625
252891.341699916,-0.3614501953125,-0.3023681640625,-0.095703125,-11.65771484375,-14.7705078125,-3.60107421875
252891.358310333,-0.3179931640625,-0.3023681640625,-0.095703125,-11.65771484375,-14.7705078125,-3.60107421875
252891.358369583,-0.3179931640625,-0.18408203125,-0.095703125,-11.65771484375,-14.7705078125,-3.60107421875
252891.358423291,-0.3179931640625,-0.18408203125,0.07568359375,-11.65771484375,-14.7705078125,-3.60107421875
252891.374856208,-0.3179931640625,-0.18408203125,0.07568359375,-11.65771484375,10.8642578125,-3.60107421875
252891.375064375,-0.3179931640625,-0.18408203125,0.07568359375,-11.65771484375,10.8642578125,-10.68115234375
252891.384853125,-0.3038330078125,-0.18408203125,0.07568359375,-11.65771484375,10.8642578125,-10.68115234375
252891.400397041,-0.3038330078125,-0.03515625,0.07568359375,-11.65771484375,10.8642578125,-10.68115234375
252891.400595375,-0.3038330078125,-0.03515625,0.281982421875,-11.65771484375,10.8642578125,-10.68115234375
252891.400696125,-0.3038330078125,-0.03515625,0.281982421875,-11.65771484375,34.36279296875,-10.68115234375
252891.401294833,-0.3038330078125,-0.03515625,0.281982421875,-11.65771484375,34.36279296875,-14.09912109375
252891.415379583,-0.265625,-0.03515625,0.281982421875,-11.65771484375,34.36279296875,-14.09912109375
252891.415571333,-0.265625,0.0450439453125,0.281982421875,-11.65771484375,34.36279296875,-14.09912109375
252891.415657541,-0.265625,0.0450439453125,0.3262939453125,-11.65771484375,34.36279296875,-14.09912109375
252891.430339208,-0.265625,0.0450439453125,0.3262939453125,-11.65771484375,54.443359375,-14.09912109375
252891.430454833,-0.265625,0.0450439453125,0.3262939453125,-11.65771484375,54.443359375,-14.2822265625
252891.459307583,-0.113037109375,0.0450439453125,0.3262939453125,-11.65771484375,54.443359375,-14.2822265625
252891.459461083,-0.113037109375,0.078857421875,0.3262939453125,-11.65771484375,54.443359375,-14.2822265625
252891.460229666,-0.113037109375,0.078857421875,0.455078125,-11.65771484375,54.443359375,-14.2822265625
252891.489623875,-0.113037109375,0.078857421875,0.455078125,-11.65771484375,75.74462890625,-14.2822265625
252891.489772125,-0.113037109375,0.078857421875,0.455078125,-11.65771484375,75.74462890625,-17.4560546875
252891.509329333,-0.104248046875,0.078857421875,0.455078125,-11.65771484375,75.74462890625,-17.4560546875
252891.519488458,-0.104248046875,0.178466796875,0.455078125,-11.65771484375,75.74462890625,-17.4560546875
252891.526215708,-0.104248046875,0.178466796875,0.598876953125,-11.65771484375,75.74462890625,-17.4560546875
252891.526346708,-0.104248046875,0.178466796875,0.598876953125,-11.65771484375,75.74462890625,-19.95849609375
252891.534542916,-0.0098876953125,0.178466796875,0.598876953125,-11.65771484375,75.74462890625,-19.95849609375
252891.534743,-0.0098876953125,0.3284912109375,0.598876953125,-11.65771484375,75.74462890625,-19.95849609375
252891.534856791,-0.0098876953125,0.3284912109375,0.6485595703125,-11.65771484375,75.74462890625,-19.95849609375
252891.549646833,-0.0098876953125,0.3284912109375,0.6485595703125,-11.65771484375,102.96630859375,-19.95849609375
252891.549806,-0.0098876953125,0.3284912109375,0.6485595703125,-11.65771484375,102.96630859375,-24.96337890625
252891.593992583,0.1654052734375,0.3284912109375,0.6485595703125,-11.65771484375,102.96630859375,-24.96337890625
252891.624460666,0.1654052734375,0.3624267578125,0.6485595703125,-11.65771484375,102.96630859375,-24.96337890625
252891.624660041,0.1654052734375,0.3624267578125,0.8468017578125,-11.65771484375,102.96630859375,-24.96337890625
252891.625288458,0.1654052734375,0.3624267578125,0.8468017578125,-51.81884765625,102.96630859375,-24.96337890625
252891.625468416,0.232666015625,0.3624267578125,0.8468017578125,-51.81884765625,102.96630859375,-24.96337890625
252891.643010916,0.232666015625,0.3624267578125,0.6861572265625,-51.81884765625,102.96630859375,-24.96337890625
252891.643089708,0.232666015625,0.3624267578125,0.6861572265625,-53.3447265625,102.96630859375,-24.96337890625
252891.64316625,0.232666015625,0.3624267578125,0.6861572265625,-53.3447265625,123.22998046875,-24.96337890625
252891.669562541,0.51416015625,0.3624267578125,0.6861572265625,-53.3447265625,123.22998046875,-24.96337890625
252891.669737916,0.51416015625,0.46728515625,0.6861572265625,-53.3447265625,123.22998046875,-24.96337890625
252891.676303791,0.51416015625,0.46728515625,0.7664794921875,-53.3447265625,123.22998046875,-24.96337890625
252891.676389625,0.51416015625,0.46728515625,0.7664794921875,-55.908203125,123.22998046875,-24.96337890625
252891.684634875,0.5565185546875,0.46728515625,0.7664794921875,-55.908203125,123.22998046875,-24.96337890625
252891.684859416,0.5565185546875,0.491455078125,0.7664794921875,-55.908203125,123.22998046875,-24.96337890625
252891.684986291,0.5565185546875,0.491455078125,0.7156982421875,-55.908203125,123.22998046875,-24.96337890625
252891.699820458,0.5565185546875,0.491455078125,0.7156982421875,-55.908203125,136.53564453125,-24.96337890625
252891.700023166,0.5565185546875,0.491455078125,0.7156982421875,-55.908203125,136.53564453125,-19.8974609375
252891.714608625,0.5653076171875,0.491455078125,0.7156982421875,-55.908203125,136.53564453125,-19.8974609375
252891.714819916,0.5653076171875,0.5428466796875,0.7156982421875,-55.908203125,136.53564453125,-19.8974609375
252891.714944875,0.5653076171875,0.5428466796875,0.650146484375,-55.908203125,136.53564453125,-19.8974609375
252891.7296745,0.5653076171875,0.5428466796875,0.650146484375,-55.908203125,137.02392578125,-19.8974609375
252891.729832333,0.5653076171875,0.5428466796875,0.650146484375,-55.908203125,137.02392578125,-17.39501953125
252891.744995666,0.772216796875,0.5428466796875,0.650146484375,-55.908203125,137.02392578125,-17.39501953125
252891.745157916,0.772216796875,0.6246337890625,0.650146484375,-55.908203125,137.02392578125,-17.39501953125
252891.775656666,0.772216796875,0.6246337890625,0.81640625,-55.908203125,137.02392578125,-17.39501953125
252891.78966275,0.772216796875,0.6246337890625,0.81640625,-55.908203125,141.2353515625,-17.39501953125
252891.789872541,0.772216796875,0.6246337890625,0.81640625,-55.908203125,141.2353515625,-22.88818359375
252891.790695333,0.833984375,0.6246337890625,0.81640625,-55.908203125,141.2353515625,-22.88818359375
252891.790783375,0.833984375,0.6246337890625,0.7799072265625,-55.908203125,141.2353515625,-22.88818359375
252891.809283625,0.833984375,0.6246337890625,0.7799072265625,-55.908203125,133.9111328125,-22.88818359375
252891.826236666,0.833984375,0.6246337890625,0.7799072265625,-55.908203125,133.9111328125,-26.611328125
252891.826357541,0.9833984375,0.6246337890625,0.7799072265625,-55.908203125,133.9111328125,-26.611328125
252891.82643,0.9833984375,0.7059326171875,0.7799072265625,-55.908203125,133.9111328125,-26.611328125
252891.826499458,0.9833984375,0.7059326171875,0.794189453125,-55.908203125,133.9111328125,-26.611328125
252891.834778708,0.9833984375,0.7059326171875,0.794189453125,-55.908203125,137.3291015625,-26.611328125
252891.834966125,0.9833984375,0.7059326171875,0.794189453125,-55.908203125,137.3291015625,-15.44189453125
252891.849723333,1.012939453125,0.7059326171875,0.794189453125,-55.908203125,137.3291015625,-15.44189453125
252891.849924125,1.012939453125,0.66796875,0.794189453125,-55.908203125,137.3291015625,-15.44189453125
252891.850032541,1.012939453125,0.66796875,0.8408203125,-55.908203125,137.3291015625,-15.44189453125
252891.879372,1.012939453125,0.66796875,0.8408203125,-55.908203125,130.43212890625,-15.44189453125
252891.879551416,1.012939453125,0.66796875,0.8408203125,-55.908203125,130.43212890625,-8.85009765625
252891.892628541,1.000244140625,0.66796875,0.8408203125,-55.908203125,130.43212890625,-8.85009765625
252891.894271416,1.000244140625,0.66796875,0.66796875,-55.908203125,130.43212890625,-8.85009765625
252891.909560416,1.000244140625,0.66796875,0.66796875,-36.31591796875,130.43212890625,-8.85009765625
252891.9097355,1.000244140625,0.66796875,0.66796875,-36.31591796875,122.00927734375,-8.85009765625
252891.926040416,0.9542236328125,0.66796875,0.66796875,-36.31591796875,122.00927734375,-8.85009765625
252891.92613125,0.9542236328125,0.5301513671875,0.66796875,-36.31591796875,122.00927734375,-8.85009765625
252891.926203166,0.9542236328125,0.5301513671875,0.66796875,-41.07666015625,122.00927734375,-8.85009765625
252891.926263458,0.9542236328125,0.5301513671875,0.66796875,-41.07666015625,119.32373046875,-8.85009765625
252891.954508541,1.0782470703125,0.5301513671875,0.66796875,-41.07666015625,119.32373046875,-8.85009765625
252891.954843,1.0782470703125,0.56396484375,0.66796875,-41.07666015625,119.32373046875,-8.85009765625
252891.955208458,1.0782470703125,0.56396484375,0.7474365234375,-41.07666015625,119.32373046875,-8.85009765625
252891.955406291,1.0782470703125,0.56396484375,0.7474365234375,-25.69580078125,119.32373046875,-8.85009765625
252891.975968708,1.0821533203125,0.56396484375,0.7474365234375,-25.69580078125,119.32373046875,-8.85009765625
252891.976047875,1.0821533203125,0.4959716796875,0.7474365234375,-25.69580078125,119.32373046875,-8.85009765625
252891.984600291,1.0821533203125,0.4959716796875,0.5677490234375,-25.69580078125,119.32373046875,-8.85009765625
252891.98480425,1.0821533203125,0.4959716796875,0.5677490234375,-25.69580078125,94.05517578125,-8.85009765625
252891.98488825,1.0821533203125,0.4959716796875,0.5677490234375,-25.69580078125,94.05517578125,-7.9345703125
252891.999805875,0.997314453125,0.4959716796875,0.5677490234375,-25.69580078125,94.05517578125,-7.9345703125
252891.999974541,0.997314453125,0.47607421875,0.5677490234375,-25.69580078125,94.05517578125,-7.9345703125
252892.000035666,0.997314453125,0.47607421875,0.54736328125,-25.69580078125,94.05517578125,-7.9345703125
252892.014490125,0.997314453125,0.47607421875,0.54736328125,-25.69580078125,81.60400390625,-7.9345703125
252892.014633333,0.997314453125,0.47607421875,0.54736328125,-25.69580078125,81.60400390625,-8.60595703125
252892.029267208,1.064208984375,0.47607421875,0.54736328125,-25.69580078125,81.60400390625,-8.60595703125
252892.045283541,1.064208984375,0.5128173828125,0.54736328125,-25.69580078125,81.60400390625,-8.60595703125
252892.04540375,1.064208984375,0.5128173828125,0.6416015625,-25.69580078125,81.60400390625,-8.60595703125
252892.074934041,1.064208984375,0.5128173828125,0.6416015625,-25.69580078125,72.20458984375,-8.60595703125
252892.075023416,1.064208984375,0.5128173828125,0.6416015625,-25.69580078125,72.20458984375,-4.8828125
252892.07618025,1.07958984375,0.5128173828125,0.6416015625,-25.69580078125,72.20458984375,-4.8828125
252892.076296583,1.07958984375,0.4776611328125,0.6416015625,-25.69580078125,72.20458984375,-4.8828125
252892.0922745,1.07958984375,0.4776611328125,0.6416015625,-25.69580078125,61.46240234375,-4.8828125
252892.092351458,1.07958984375,0.4776611328125,0.6416015625,-25.69580078125,61.46240234375,-1.28173828125
252892.109699208,0.9825439453125,0.4776611328125,0.6416015625,-25.69580078125,61.46240234375,-1.28173828125
252892.109781125,0.9825439453125,0.4288330078125,0.6416015625,-25.69580078125,61.46240234375,-1.28173828125
252892.119714416,0.9825439453125,0.4288330078125,0.4400634765625,-25.69580078125,61.46240234375,-1.28173828125
252892.119951291,0.9825439453125,0.4288330078125,0.4400634765625,-25.69580078125,36.62109375,-1.28173828125
252892.126133833,0.9825439453125,0.4288330078125,0.4400634765625,-25.69580078125,36.62109375,2.38037109375
252892.13461875,0.9697265625,0.4288330078125,0.4400634765625,-25.69580078125,36.62109375,2.38037109375
252892.150428333,0.9697265625,0.4664306640625,0.4400634765625,-25.69580078125,36.62109375,2.38037109375
252892.150645708,0.9697265625,0.4664306640625,0.428955078125,-25.69580078125,36.62109375,2.38037109375
252892.15087675,0.9697265625,0.4664306640625,0.428955078125,-25.69580078125,27.34375,2.38037109375
252892.151789083,0.9697265625,0.4664306640625,0.428955078125,-25.69580078125,27.34375,4.33349609375
252892.179256583,0.950927734375,0.4664306640625,0.428955078125,-25.69580078125,27.34375,4.33349609375
252892.179370666,0.950927734375,0.5029296875,0.428955078125,-25.69580078125,27.34375,4.33349609375
252892.180007541,0.950927734375,0.5029296875,0.36669921875,-25.69580078125,27.34375,4.33349609375
252892.180091666,0.950927734375,0.5029296875,0.36669921875,-25.69580078125,18.1884765625,4.33349609375
252892.194533041,0.9368896484375,0.5029296875,0.36669921875,-25.69580078125,18.1884765625,4.33349609375
252892.19464175,0.9368896484375,0.4970703125,0.36669921875,-25.69580078125,18.1884765625,4.33349609375
252892.194677416,0.9368896484375,0.4970703125,0.2694091796875,-25.69580078125,18.1884765625,4.33349609375
252892.209547625,0.9368896484375,0.4970703125,0.2694091796875,-25.69580078125,12.20703125,4.33349609375
252892.209650041,0.9368896484375,0.4970703125,0.2694091796875,-25.69580078125,12.20703125,1.52587890625
252892.224601916,0.8983154296875,0.4970703125,0.2694091796875,-25.69580078125,12.20703125,1.52587890625
252892.224740458,0.8983154296875,0.4462890625,0.2694091796875,-25.69580078125,12.20703125,1.52587890625
252892.224997791,0.8983154296875,0.4462890625,0.204345703125,-25.69580078125,12.20703125,1.52587890625
252892.241556708,0.8983154296875,0.4462890625,0.204345703125,-25.69580078125,8.23974609375,1.52587890625
252892.241601666,0.8983154296875,0.4462890625,0.204345703125,-25.69580078125,8.23974609375,3.11279296875
252892.269640958,0.88916015625,0.4462890625,0.204345703125,-25.69580078125,8.23974609375,3.11279296875
252892.274672958,0.88916015625,0.4119873046875,0.204345703125,-25.69580078125,8.23974609375,3.11279296875
252892.274839083,0.88916015625,0.4119873046875,0.2154541015625,-25.69580078125,8.23974609375,3.11279296875
252892.274883333,0.88916015625,0.4119873046875,0.2154541015625,-25.69580078125,2.99072265625,3.11279296875
252892.284375125,0.89306640625,0.4119873046875,0.2154541015625,-25.69580078125,2.99072265625,3.11279296875
252892.284464958,0.89306640625,0.4146728515625,0.2154541015625,-25.69580078125,2.99072265625,3.11279296875
252892.291083625,0.89306640625,0.4146728515625,0.251220703125,-25.69580078125,2.99072265625,3.11279296875
252892.2993495,0.89306640625,0.4146728515625,0.251220703125,-25.69580078125,-2.5634765625,3.11279296875
252892.2994365,0.89306640625,0.4146728515625,0.251220703125,-25.69580078125,-2.5634765625,2.197265625
252892.314401208,0.9373779296875,0.4146728515625,0.251220703125,-25.69580078125,-2.5634765625,2.197265625
252892.314485875,0.9373779296875,0.4271240234375,0.251220703125,-25.69580078125,-2.5634765625,2.197265625
252892.344792375,0.9373779296875,0.4271240234375,0.28125,-25.69580078125,-2.5634765625,2.197265625
NEW_REP,,,,,,
252892.358711916,0.9373779296875,0.4271240234375,0.28125,-25.69580078125,-8.85009765625,2.197265625
252892.390136541,0.9373779296875,0.4271240234375,0.28125,-25.69580078125,-8.85009765625,0.8544921875
252892.390387583,0.9884033203125,0.4271240234375,0.28125,-25.69580078125,-8.85009765625,0.8544921875
252892.390585916,0.9884033203125,0.4271240234375,0.4779052734375,-25.69580078125,-8.85009765625,0.8544921875
252892.390759458,0.9884033203125,0.4271240234375,0.4779052734375,-2.62451171875,-8.85009765625,0.8544921875
252892.408003458,0.9884033203125,0.4271240234375,0.4779052734375,-2.62451171875,-8.85009765625,0.3662109375
252892.448517041,1.173095703125,0.4271240234375,0.4779052734375,-2.62451171875,-8.85009765625,0.3662109375
252892.45064125,1.173095703125,0.476318359375,0.4779052734375,-2.62451171875,-8.85009765625,0.3662109375
252892.450744708,1.173095703125,0.476318359375,0.725341796875,-2.62451171875,-8.85009765625,0.3662109375
252892.450801125,1.173095703125,0.476318359375,0.725341796875,36.43798828125,-8.85009765625,0.3662109375
252892.47496975,1.2159423828125,0.476318359375,0.725341796875,36.43798828125,-8.85009765625,0.3662109375
252892.475013541,1.2159423828125,0.4886474609375,0.725341796875,36.43798828125,-8.85009765625,0.3662109375
252892.475047416,1.2159423828125,0.4886474609375,0.786376953125,36.43798828125,-8.85009765625,0.3662109375
252892.4794395,1.2159423828125,0.4886474609375,0.786376953125,36.43798828125,-61.70654296875,0.3662109375
252892.479527541,1.2159423828125,0.4886474609375,0.786376953125,36.43798828125,-61.70654296875,5.2490234375
252892.509223708,1.3126220703125,0.4886474609375,0.786376953125,36.43798828125,-61.70654296875,5.2490234375
252892.50931425,1.3126220703125,0.610595703125,0.786376953125,36.43798828125,-61.70654296875,5.2490234375
252892.510293,1.3126220703125,0.610595703125,0.919921875,36.43798828125,-61.70654296875,5.2490234375
252892.510484708,1.3126220703125,0.610595703125,0.919921875,37.29248046875,-61.70654296875,5.2490234375
252892.524704375,1.321044921875,0.610595703125,0.919921875,37.29248046875,-61.70654296875,5.2490234375
252892.524746125,1.321044921875,0.6712646484375,0.919921875,37.29248046875,-61.70654296875,5.2490234375
252892.524779583,1.321044921875,0.6712646484375,0.9471435546875,37.29248046875,-61.70654296875,5.2490234375
252892.541500916,1.321044921875,0.6712646484375,0.9471435546875,37.29248046875,-112.79296875,5.2490234375
252892.541549833,1.321044921875,0.6712646484375,0.9471435546875,37.29248046875,-112.79296875,12.75634765625
252892.569177458,1.2784423828125,0.6712646484375,0.9471435546875,37.29248046875,-112.79296875,12.75634765625
252892.569265125,1.2784423828125,0.619140625,0.9471435546875,37.29248046875,-112.79296875,12.75634765625
252892.5700255,1.2784423828125,0.619140625,0.859375,37.29248046875,-112.79296875,12.75634765625
252892.584449791,1.2784423828125,0.619140625,0.859375,37.29248046875,-134.6435546875,12.75634765625
252892.58454525,1.2784423828125,0.619140625,0.859375,37.29248046875,-134.6435546875,6.2255859375
252892.607986291,1.2452392578125,0.619140625,0.859375,37.29248046875,-134.6435546875,6.2255859375
252892.608027666,1.2452392578125,0.6412353515625,0.859375,37.29248046875,-134.6435546875,6.2255859375
252892.608061291,1.2452392578125,0.6412353515625,0.77392578125,37.29248046875,-134.6435546875,6.2255859375
252892.614453708,1.2452392578125,0.6412353515625,0.77392578125,37.29248046875,-152.64892578125,6.2255859375
252892.61454775,1.2452392578125,0.6412353515625,0.77392578125,37.29248046875,-152.64892578125,-4.57763671875
252892.629418875,1.20849609375,0.6412353515625,0.77392578125,37.29248046875,-152.64892578125,-4.57763671875
252892.6295035,1.20849609375,0.72021484375,0.77392578125,37.29248046875,-152.64892578125,-4.57763671875
252892.630689583,1.20849609375,0.72021484375,0.73583984375,37.29248046875,-152.64892578125,-4.57763671875
252892.675728416,1.20849609375,0.72021484375,0.73583984375,37.29248046875,-164.24560546875,-4.57763671875
252892.691253416,1.20849609375,0.72021484375,0.73583984375,37.29248046875,-164.24560546875,-8.85009765625
252892.691451416,1.1748046875,0.72021484375,0.73583984375,37.29248046875,-164.24560546875,-8.85009765625
252892.691485125,1.1748046875,0.72021484375,0.7652587890625,37.29248046875,-164.24560546875,-8.85009765625
252892.691516458,1.1748046875,0.72021484375,0.7652587890625,86.97509765625,-164.24560546875,-8.85009765625
252892.691545916,1.1748046875,0.72021484375,0.7652587890625,86.97509765625,-168.8232421875,-8.85009765625
252892.707936166,0.987060546875,0.72021484375,0.7652587890625,86.97509765625,-168.8232421875,-8.85009765625
252892.707976416,0.987060546875,0.741455078125,0.7652587890625,86.97509765625,-168.8232421875,-8.85009765625
252892.708008125,0.987060546875,0.741455078125,0.64306640625,86.97509765625,-168.8232421875,-8.85009765625
252892.733420833,0.987060546875,0.741455078125,0.64306640625,86.97509765625,-170.10498046875,-8.85009765625
252892.741476958,0.987060546875,0.741455078125,0.64306640625,86.97509765625,-170.10498046875,4.0283203125
252892.741520208,0.867919921875,0.741455078125,0.64306640625,86.97509765625,-170.10498046875,4.0283203125
252892.74155225,0.867919921875,0.6705322265625,0.64306640625,86.97509765625,-170.10498046875,4.0283203125
252892.74943825,0.867919921875,0.6705322265625,0.64306640625,86.97509765625,-161.19384765625,4.0283203125
252892.7495205,0.867919921875,0.6705322265625,0.64306640625,86.97509765625,-161.19384765625,7.32421875
252892.765040083,0.711181640625,0.6705322265625,0.64306640625,86.97509765625,-161.19384765625,7.32421875
252892.765078666,0.711181640625,0.5699462890625,0.64306640625,86.97509765625,-161.19384765625,7.32421875
252892.766188833,0.711181640625,0.5699462890625,0.577880859375,86.97509765625,-161.19384765625,7.32421875
252892.779525708,0.711181640625,0.5699462890625,0.577880859375,86.97509765625,-155.09033203125,7.32421875
252892.779565416,0.711181640625,0.5699462890625,0.577880859375,86.97509765625,-155.09033203125,8.60595703125
252892.809997333,0.54248046875,0.5699462890625,0.577880859375,86.97509765625,-155.09033203125,8.60595703125
252892.81004525,0.54248046875,0.46533203125,0.577880859375,86.97509765625,-155.09033203125,8.60595703125
252892.81007675,0.54248046875,0.46533203125,0.5277099609375,86.97509765625,-155.09033203125,8.60595703125
252892.810811,0.54248046875,0.46533203125,0.5277099609375,86.97509765625,-149.23095703125,8.60595703125
252892.827062083,0.4541015625,0.46533203125,0.5277099609375,86.97509765625,-149.23095703125,8.60595703125
252892.827170291,0.4541015625,0.4254150390625,0.5277099609375,86.97509765625,-149.23095703125,8.60595703125
252892.827227083,0.4541015625,0.4254150390625,0.5203857421875,86.97509765625,-149.23095703125,8.60595703125
252892.854590375,0.4541015625,0.4254150390625,0.5203857421875,86.97509765625,-148.0712890625,8.60595703125
252892.854629333,0.4541015625,0.4254150390625,0.5203857421875,86.97509765625,-148.0712890625,5.55419921875
252892.856041166,0.2939453125,0.4254150390625,0.5203857421875,86.97509765625,-148.0712890625,5.55419921875
252892.856110458,0.2939453125,0.3016357421875,0.5203857421875,86.97509765625,-148.0712890625,5.55419921875
252892.875123833,0.2939453125,0.3016357421875,0.5203857421875,86.97509765625,-149.96337890625,5.55419921875
252892.875165416,0.2939453125,0.3016357421875,0.5203857421875,86.97509765625,-149.96337890625,4.08935546875
252892.884288833,0.228515625,0.3016357421875,0.5203857421875,86.97509765625,-149.96337890625,4.08935546875
252892.89946425,0.228515625,0.1982421875,0.5203857421875,86.97509765625,-149.96337890625,4.08935546875
252892.899551666,0.228515625,0.1982421875,0.4903564453125,86.97509765625,-149.96337890625,4.08935546875
252892.9004355,0.228515625,0.1982421875,0.4903564453125,86.97509765625,-150.45166015625,4.08935546875
252892.900521666,0.228515625,0.1982421875,0.4903564453125,86.97509765625,-150.45166015625,8.23974609375
252892.914333333,0.0970458984375,0.1982421875,0.4903564453125,86.97509765625,-150.45166015625,8.23974609375
252892.9144615,0.0970458984375,0.0714111328125,0.4903564453125,86.97509765625,-150.45166015625,8.23974609375
252892.914529,0.0970458984375,0.0714111328125,0.3643798828125,86.97509765625,-150.45166015625,8.23974609375
252892.929493541,0.0970458984375,0.0714111328125,0.3643798828125,86.97509765625,-155.6396484375,8.23974609375
252892.929609708,0.0970458984375,0.0714111328125,0.3643798828125,86.97509765625,-155.6396484375,11.41357421875
252892.944859625,-0.013671875,0.0714111328125,0.3643798828125,86.97509765625,-155.6396484375,11.41357421875
252892.944970708,-0.013671875,0.1173095703125,0.3643798828125,86.97509765625,-155.6396484375,11.41357421875
252892.9734385,-0.013671875,0.1173095703125,0.2049560546875,86.97509765625,-155.6396484375,11.41357421875
252892.975480083,-0.013671875,0.1173095703125,0.2049560546875,86.97509765625,-162.29248046875,11.41357421875
252892.977710708,-0.013671875,0.1173095703125,0.2049560546875,86.97509765625,-162.29248046875,13.3056640625
252892.977870708,-0.1695556640625,0.1173095703125,0.2049560546875,86.97509765625,-162.29248046875,13.3056640625
252893.004793125,-0.1695556640625,0.1173095703125,0.1014404296875,86.97509765625,-162.29248046875,13.3056640625
252893.004984833,-0.1695556640625,0.1173095703125,0.1014404296875,51.6357421875,-162.29248046875,13.3056640625
252893.005083583,-0.1695556640625,0.1173095703125,0.1014404296875,51.6357421875,-150.93994140625,13.3056640625
252893.005551166,-0.3343505859375,0.1173095703125,0.1014404296875,51.6357421875,-150.93994140625,13.3056640625
252893.034479708,-0.3343505859375,0.1173095703125,-0.0738525390625,51.6357421875,-150.93994140625,13.3056640625
252893.03466625,-0.3343505859375,0.1173095703125,-0.0738525390625,39.12353515625,-150.93994140625,13.3056640625
252893.035063916,-0.3343505859375,0.1173095703125,-0.0738525390625,39.12353515625,-122.1923828125,13.3056640625
252893.049623916,-0.4705810546875,0.1173095703125,-0.0738525390625,39.12353515625,-122.1923828125,13.3056640625
252893.049965166,-0.4705810546875,-0.243408203125,-0.0738525390625,39.12353515625,-122.1923828125,13.3056640625
252893.050023,-0.4705810546875,-0.243408203125,-0.241455078125,39.12353515625,-122.1923828125,13.3056640625
252893.064511041,-0.4705810546875,-0.243408203125,-0.241455078125,39.12353515625,-122.1923828125,15.19775390625
252893.079409291,-0.4716796875,-0.243408203125,-0.241455078125,39.12353515625,-122.1923828125,15.19775390625
252893.079542666,-0.4716796875,-0.2120361328125,-0.241455078125,39.12353515625,-122.1923828125,15.19775390625
252893.079612541,-0.4716796875,-0.2120361328125,-0.205078125,39.12353515625,-122.1923828125,15.19775390625
252893.094479166,-0.4716796875,-0.2120361328125,-0.205078125,39.12353515625,-20.3857421875,15.19775390625
252893.094519041,-0.4716796875,-0.2120361328125,-0.205078125,39.12353515625,-20.3857421875,12.87841796875
252893.109392166,-0.4390869140625,-0.2120361328125,-0.205078125,39.12353515625,-20.3857421875,12.87841796875
252893.109493458,-0.4390869140625,-0.2518310546875,-0.205078125,39.12353515625,-20.3857421875,12.87841796875
252893.109525,-0.4390869140625,-0.2518310546875,-0.14208984375,39.12353515625,-20.3857421875,12.87841796875
252893.124430875,-0.4390869140625,-0.2518310546875,-0.14208984375,39.12353515625,9.94873046875,12.87841796875
252893.124527833,-0.4390869140625,-0.2518310546875,-0.14208984375,39.12353515625,9.94873046875,8.48388671875
252893.141101375,-0.3848876953125,-0.2518310546875,-0.14208984375,39.12353515625,9.94873046875,8.48388671875
252893.141164625,-0.3848876953125,-0.2357177734375,-0.14208984375,39.12353515625,9.94873046875,8.48388671875
252893.141218208,-0.3848876953125,-0.2357177734375,-0.072265625,39.12353515625,9.94873046875,8.48388671875
252893.169324125,-0.3848876953125,-0.2357177734375,-0.072265625,39.12353515625,50.6591796875,8.48388671875
252893.175057541,-0.3848876953125,-0.2357177734375,-0.072265625,39.12353515625,50.6591796875,4.08935546875
252893.175158041,-0.355712890625,-0.2357177734375,-0.072265625,39.12353515625,50.6591796875,4.08935546875
252893.175213,-0.355712890625,-0.1348876953125,-0.072265625,39.12353515625,50.6591796875,4.08935546875
252893.184409291,-0.355712890625,-0.1348876953125,-0.072265625,39.12353515625,88.0126953125,4.08935546875
252893.184518041,-0.355712890625,-0.1348876953125,-0.072265625,39.12353515625,88.0126953125,-0.06103515625
252893.19950175,-0.2508544921875,-0.1348876953125,-0.072265625,39.12353515625,88.0126953125,-0.06103515625
252893.199655375,-0.2508544921875,-0.0072021484375,-0.072265625,39.12353515625,88.0126953125,-0.06103515625
252893.199742041,-0.2508544921875,-0.0072021484375,0.1761474609375,39.12353515625,88.0126953125,-0.06103515625
252893.217682416,-0.2508544921875,-0.0072021484375,0.1761474609375,39.12353515625,111.81640625,-0.06103515625
252893.244643708,-0.2508544921875,-0.0072021484375,0.1761474609375,39.12353515625,111.81640625,-2.50244140625
252893.244790333,-0.091796875,-0.0072021484375,0.1761474609375,39.12353515625,111.81640625,-2.50244140625
252893.275336041,-0.091796875,0.064697265625,0.1761474609375,39.12353515625,111.81640625,-2.50244140625
252893.289850166,-0.091796875,0.064697265625,0.1761474609375,39.12353515625,138.00048828125,-2.50244140625
252893.290039458,0.00048828125,0.064697265625,0.1761474609375,39.12353515625,138.00048828125,-2.50244140625
252893.290104416,0.00048828125,0.0704345703125,0.1761474609375,39.12353515625,138.00048828125,-2.50244140625
252893.29056675,0.00048828125,0.0704345703125,0.1761474609375,-58.53271484375,138.00048828125,-2.50244140625
252893.308562166,0.00048828125,0.0704345703125,0.1761474609375,-58.53271484375,138.00048828125,-8.6669921875
252893.334330458,0.28857421875,0.0704345703125,0.1761474609375,-58.53271484375,138.00048828125,-8.6669921875
252893.334462791,0.28857421875,0.3470458984375,0.1761474609375,-58.53271484375,138.00048828125,-8.6669921875
252893.335231041,0.28857421875,0.3470458984375,0.7391357421875,-58.53271484375,138.00048828125,-8.6669921875
252893.335332708,0.28857421875,0.3470458984375,0.7391357421875,-78.91845703125,138.00048828125,-8.6669921875
252893.349585541,0.3349609375,0.3470458984375,0.7391357421875,-78.91845703125,138.00048828125,-8.6669921875
252893.364846958,0.3349609375,0.3797607421875,0.7391357421875,-78.91845703125,138.00048828125,-8.6669921875
252893.365001083,0.3349609375,0.3797607421875,0.697509765625,-78.91845703125,138.00048828125,-8.6669921875
252893.365084625,0.3349609375,0.3797607421875,0.697509765625,-78.91845703125,152.34375,-8.6669921875
252893.365499208,0.3349609375,0.3797607421875,0.697509765625,-78.91845703125,152.34375,-18.4326171875
252893.394150166,0.4454345703125,0.3797607421875,0.697509765625,-78.91845703125,152.34375,-18.4326171875
252893.395764041,0.4454345703125,0.4091796875,0.697509765625,-78.91845703125,152.34375,-18.4326171875
252893.395900375,0.4454345703125,0.4091796875,0.753662109375,-78.91845703125,152.34375,-18.4326171875
252893.409496791,0.4454345703125,0.4091796875,0.753662109375,-78.91845703125,163.6962890625,-18.4326171875
252893.4096245,0.4454345703125,0.4091796875,0.753662109375,-78.91845703125,163.6962890625,-16.7236328125
252893.42552125,0.7386474609375,0.4091796875,0.753662109375,-78.91845703125,163.6962890625,-16.7236328125
252893.425617083,0.7386474609375,0.4962158203125,0.753662109375,-78.91845703125,163.6962890625,-16.7236328125
252893.425772625,0.7386474609375,0.4962158203125,0.683349609375,-78.91845703125,163.6962890625,-16.7236328125
252893.442183208,0.7386474609375,0.4962158203125,0.683349609375,-78.91845703125,163.4521484375,-16.7236328125
252893.442250291,0.7386474609375,0.4962158203125,0.683349609375,-78.91845703125,163.4521484375,-22.03369140625
252893.458585291,0.7647705078125,0.4962158203125,0.683349609375,-78.91845703125,163.4521484375,-22.03369140625
252893.458656333,0.7647705078125,0.580810546875,0.683349609375,-78.91845703125,163.4521484375,-22.03369140625
252893.458711416,0.7647705078125,0.580810546875,0.8790283203125,-78.91845703125,163.4521484375,-22.03369140625
252893.475133916,0.7647705078125,0.580810546875,0.8790283203125,-78.91845703125,161.92626953125,-22.03369140625
252893.475193666,0.7647705078125,0.580810546875,0.8790283203125,-78.91845703125,161.92626953125,-23.37646484375
252893.499500625,0.9490966796875,0.580810546875,0.8790283203125,-78.91845703125,161.92626953125,-23.37646484375
252893.49961775,0.9490966796875,0.5787353515625,0.8790283203125,-78.91845703125,161.92626953125,-23.37646484375
252893.500328791,0.9490966796875,0.5787353515625,0.6192626953125,-78.91845703125,161.92626953125,-23.37646484375
252893.5004505,0.9490966796875,0.5787353515625,0.6192626953125,-75.74462890625,161.92626953125,-23.37646484375
252893.514429041,1.014404296875,0.5787353515625,0.6192626953125,-75.74462890625,161.92626953125,-23.37646484375
252893.514586125,1.014404296875,0.7103271484375,0.6192626953125,-75.74462890625,161.92626953125,-23.37646484375
252893.514669333,1.014404296875,0.7103271484375,0.81201171875,-75.74462890625,161.92626953125,-23.37646484375
252893.529619708,1.014404296875,0.7103271484375,0.81201171875,-75.74462890625,152.03857421875,-23.37646484375
252893.529732125,1.014404296875,0.7103271484375,0.81201171875,-75.74462890625,152.03857421875,-23.86474609375
252893.545568083,0.9893798828125,0.7103271484375,0.81201171875,-75.74462890625,152.03857421875,-23.86474609375
252893.545677,0.9893798828125,0.77734375,0.81201171875,-75.74462890625,152.03857421875,-23.86474609375
252893.589748833,0.9893798828125,0.77734375,0.81396484375,-75.74462890625,152.03857421875,-23.86474609375
252893.589874833,0.9893798828125,0.77734375,0.81396484375,-75.74462890625,143.6767578125,-23.86474609375
252893.58994675,0.9893798828125,0.77734375,0.81396484375,-75.74462890625,143.6767578125,-9.521484375
252893.590400958,1.1341552734375,0.77734375,0.81396484375,-75.74462890625,143.6767578125,-9.521484375
252893.608382791,1.1341552734375,0.77734375,0.7901611328125,-75.74462890625,143.6767578125,-9.521484375
252893.608438291,1.1341552734375,0.77734375,0.7901611328125,-96.5576171875,143.6767578125,-9.521484375
252893.608622458,1.1341552734375,0.77734375,0.7901611328125,-96.5576171875,131.77490234375,-9.521484375
252893.625118583,1.01318359375,0.77734375,0.7901611328125,-96.5576171875,131.77490234375,-9.521484375
252893.625202875,1.01318359375,0.7255859375,0.7901611328125,-96.5576171875,131.77490234375,-9.521484375
252893.625251416,1.01318359375,0.7255859375,0.623779296875,-96.5576171875,131.77490234375,-9.521484375
252893.635034583,1.01318359375,0.7255859375,0.623779296875,-96.5576171875,116.2109375,-9.521484375
252893.635127083,1.01318359375,0.7255859375,0.623779296875,-96.5576171875,116.2109375,-12.3291015625
252893.649551583,1.18017578125,0.7255859375,0.623779296875,-96.5576171875,116.2109375,-12.3291015625
252893.649675875,1.18017578125,0.854736328125,0.623779296875,-96.5576171875,116.2109375,-12.3291015625
252893.649722958,1.18017578125,0.854736328125,0.8857421875,-96.5576171875,116.2109375,-12.3291015625
252893.664563666,1.18017578125,0.854736328125,0.8857421875,-96.5576171875,115.78369140625,-12.3291015625
252893.664685666,1.18017578125,0.854736328125,0.8857421875,-96.5576171875,115.78369140625,-11.41357421875
252893.679457125,1.1663818359375,0.854736328125,0.8857421875,-96.5576171875,115.78369140625,-11.41357421875
252893.679631541,1.1663818359375,0.689697265625,0.8857421875,-96.5576171875,115.78369140625,-11.41357421875
252893.679678791,1.1663818359375,0.689697265625,0.7796630859375,-96.5576171875,115.78369140625,-11.41357421875
252893.695264,1.1663818359375,0.689697265625,0.7796630859375,-96.5576171875,105.89599609375,-11.41357421875
252893.695373291,1.1663818359375,0.689697265625,0.7796630859375,-96.5576171875,105.89599609375,-4.21142578125
252893.724539666,1.097900390625,0.689697265625,0.7796630859375,-96.5576171875,105.89599609375,-4.21142578125
252893.726901625,1.097900390625,0.6531982421875,0.7796630859375,-96.5576171875,105.89599609375,-4.21142578125
252893.727012291,1.097900390625,0.6531982421875,0.658935546875,-96.5576171875,105.89599609375,-4.21142578125
252893.770120125,1.097900390625,0.6531982421875,0.658935546875,-96.5576171875,89.05029296875,-4.21142578125
252893.770314666,1.097900390625,0.6531982421875,0.658935546875,-96.5576171875,89.05029296875,0.18310546875
252893.770423958,1.07177734375,0.6531982421875,0.658935546875,-96.5576171875,89.05029296875,0.18310546875
252893.791969375,1.07177734375,0.571044921875,0.658935546875,-96.5576171875,89.05029296875,0.18310546875
252893.814325875,1.07177734375,0.571044921875,0.658935546875,-96.5576171875,71.22802734375,0.18310546875
252893.814431708,1.07177734375,0.571044921875,0.658935546875,-96.5576171875,71.22802734375,14.892578125
252893.815197125,1.013671875,0.571044921875,0.658935546875,-96.5576171875,71.22802734375,14.892578125
252893.844732708,1.013671875,0.431396484375,0.658935546875,-96.5576171875,71.22802734375,14.892578125
252893.844882958,1.013671875,0.431396484375,0.658935546875,-96.5576171875,49.01123046875,14.892578125
252893.874616916,1.013671875,0.431396484375,0.658935546875,-96.5576171875,49.01123046875,13.48876953125
252893.889688583,0.9464111328125,0.431396484375,0.658935546875,-96.5576171875,49.01123046875,13.48876953125
252893.889857583,0.9464111328125,0.431396484375,0.32470703125,-96.5576171875,49.01123046875,13.48876953125
252893.889950958,0.9464111328125,0.431396484375,0.32470703125,-67.81005859375,49.01123046875,13.48876953125
252893.8905125,0.9464111328125,0.431396484375,0.32470703125,-67.81005859375,49.01123046875,11.5966796875
252893.9196075,0.92724609375,0.431396484375,0.32470703125,-67.81005859375,49.01123046875,11.5966796875
252893.919668458,0.92724609375,0.47119140625,0.32470703125,-67.81005859375,49.01123046875,11.5966796875
252893.920190958,0.92724609375,0.47119140625,0.2840576171875,-67.81005859375,49.01123046875,11.5966796875
252893.920307416,0.92724609375,0.47119140625,0.2840576171875,-33.75244140625,49.01123046875,11.5966796875
252893.949601416,0.865234375,0.47119140625,0.2840576171875,-33.75244140625,49.01123046875,11.5966796875
252893.949733375,0.865234375,0.5997314453125,0.2840576171875,-33.75244140625,49.01123046875,11.5966796875
252893.950316291,0.865234375,0.5997314453125,0.227294921875,-33.75244140625,49.01123046875,11.5966796875
252893.950465916,0.865234375,0.5997314453125,0.227294921875,-33.75244140625,-1.0986328125,11.5966796875
252893.964854583,0.8260498046875,0.5997314453125,0.227294921875,-33.75244140625,-1.0986328125,11.5966796875
252893.964916708,0.8260498046875,0.595703125,0.227294921875,-33.75244140625,-1.0986328125,11.5966796875
252893.965050958,0.8260498046875,0.595703125,0.1090087890625,-33.75244140625,-1.0986328125,11.5966796875
252893.97976175,0.8260498046875,0.595703125,0.1090087890625,-33.75244140625,5.18798828125,11.5966796875
252893.979910208,0.8260498046875,0.595703125,0.1090087890625,-33.75244140625,5.18798828125,-8.85009765625
NEW_REP,,,,,,
252894.008018958,0.8525390625,0.595703125,0.1090087890625,-33.75244140625,5.18798828125,-8.85009765625
252894.008064125,0.8525390625,0.6011962890625,0.1090087890625,-33.75244140625,5.18798828125,-8.85009765625
252894.008104166,0.8525390625,0.6011962890625,0.128662109375,-33.75244140625,5.18798828125,-8.85009765625
252894.011689791,0.8525390625,0.6011962890625,0.128662109375,-33.75244140625,8.36181640625,-8.85009765625
252894.011817375,0.8525390625,0.6011962890625,0.128662109375,-33.75244140625,8.36181640625,-8.7890625
252894.024747375,0.8773193359375,0.6011962890625,0.128662109375,-33.75244140625,8.36181640625,-8.7890625
252894.024795625,0.8773193359375,0.5975341796875,0.128662109375,-33.75244140625,8.36181640625,-8.7890625
252894.0258175,0.8773193359375,0.5975341796875,0.2376708984375,-33.75244140625,8.36181640625,-8.7890625
252894.041612833,0.8773193359375,0.5975341796875,0.2376708984375,-33.75244140625,4.150390625,-8.7890625
252894.041657666,0.8773193359375,0.5975341796875,0.2376708984375,-33.75244140625,4.150390625,-5.0048828125
252894.05821575,0.8636474609375,0.5975341796875,0.2376708984375,-33.75244140625,4.150390625,-5.0048828125
252894.058259958,0.8636474609375,0.511962890625,0.2376708984375,-33.75244140625,4.150390625,-5.0048828125
252894.058301375,0.8636474609375,0.511962890625,0.2061767578125,-33.75244140625,4.150390625,-5.0048828125
252894.098520875,0.8636474609375,0.511962890625,0.2061767578125,-33.75244140625,-1.953125,-5.0048828125
252894.12470975,0.8636474609375,0.511962890625,0.2061767578125,-33.75244140625,-1.953125,-3.5400390625
252894.129607041,0.94873046875,0.511962890625,0.2061767578125,-33.75244140625,-1.953125,-3.5400390625
252894.129744791,0.94873046875,0.5609130859375,0.2061767578125,-33.75244140625,-1.953125,-3.5400390625
252894.129816583,0.94873046875,0.5609130859375,0.2061767578125,-33.75244140625,-6.65283203125,-3.5400390625
252894.130484833,1.034423828125,0.5609130859375,0.2061767578125,-33.75244140625,-6.65283203125,-3.5400390625
252894.14425475,1.034423828125,0.5609130859375,0.4822998046875,-33.75244140625,-6.65283203125,-3.5400390625
252894.144337708,1.034423828125,0.5609130859375,0.4822998046875,83.43505859375,-6.65283203125,-3.5400390625
252894.17579875,1.034423828125,0.5609130859375,0.4822998046875,83.43505859375,-21.97265625,-3.5400390625
252894.191188541,1.1124267578125,0.5609130859375,0.4822998046875,83.43505859375,-21.97265625,-3.5400390625
252894.191234958,1.1124267578125,0.3446044921875,0.4822998046875,83.43505859375,-21.97265625,-3.5400390625
252894.191273833,1.1124267578125,0.3446044921875,0.568603515625,83.43505859375,-21.97265625,-3.5400390625
252894.191312375,1.1124267578125,0.3446044921875,0.568603515625,83.43505859375,-33.02001953125,-3.5400390625
252894.234368375,1.210205078125,0.3446044921875,0.568603515625,83.43505859375,-33.02001953125,-3.5400390625
252894.234474375,1.210205078125,0.43359375,0.568603515625,83.43505859375,-33.02001953125,-3.5400390625
252894.235189541,1.210205078125,0.43359375,0.7000732421875,83.43505859375,-33.02001953125,-3.5400390625
252894.235278166,1.210205078125,0.43359375,0.7000732421875,21.484375,-33.02001953125,-3.5400390625
252894.257893541,1.2337646484375,0.43359375,0.7000732421875,21.484375,-33.02001953125,-3.5400390625
252894.257938375,1.2337646484375,0.5064697265625,0.7000732421875,21.484375,-33.02001953125,-3.5400390625
252894.257977291,1.2337646484375,0.5064697265625,0.6842041015625,21.484375,-33.02001953125,-3.5400390625
252894.264331708,1.2337646484375,0.5064697265625,0.6842041015625,21.484375,-33.02001953125,-12.51220703125
252894.309305708,1.3336181640625,0.5064697265625,0.6842041015625,21.484375,-33.02001953125,-12.51220703125
252894.309408291,1.3336181640625,0.5814208984375,0.6842041015625,21.484375,-33.02001953125,-12.51220703125
252894.310443416,1.3336181640625,0.5814208984375,0.7908935546875,21.484375,-33.02001953125,-12.51220703125
252894.310534541,1.3336181640625,0.5814208984375,0.7908935546875,55.908203125,-33.02001953125,-12.51220703125
252894.324435125,1.3326416015625,0.5814208984375,0.7908935546875,55.908203125,-33.02001953125,-12.51220703125
252894.339596458,1.3326416015625,0.6356201171875,0.7908935546875,55.908203125,-33.02001953125,-12.51220703125
252894.339752833,1.3326416015625,0.6356201171875,0.7689208984375,55.908203125,-33.02001953125,-12.51220703125
252894.33983825,1.3326416015625,0.6356201171875,0.7689208984375,55.908203125,-125.48828125,-12.51220703125
252894.340604166,1.3326416015625,0.6356201171875,0.7689208984375,55.908203125,-125.48828125,-6.16455078125
252894.369420125,1.2987060546875,0.6356201171875,0.7689208984375,55.908203125,-125.48828125,-6.16455078125
252894.375125375,1.2987060546875,0.543212890625,0.7689208984375,55.908203125,-125.48828125,-6.16455078125
252894.375211291,1.2987060546875,0.543212890625,0.7403564453125,55.908203125,-125.48828125,-6.16455078125
252894.386816166,1.2987060546875,0.543212890625,0.7403564453125,55.908203125,-149.90234375,-6.16455078125
252894.391556583,1.2987060546875,0.543212890625,0.7403564453125,55.908203125,-149.90234375,-1.708984375
252894.414273416,1.087158203125,0.543212890625,0.7403564453125,55.908203125,-149.90234375,-1.708984375
252894.415698208,1.087158203125,0.6065673828125,0.7403564453125,55.908203125,-149.90234375,-1.708984375
252894.415813666,1.087158203125,0.6065673828125,0.677734375,55.908203125,-149.90234375,-1.708984375
252894.415880125,1.087158203125,0.6065673828125,0.677734375,55.908203125,-161.9873046875,-1.708984375
252894.444273583,0.9920654296875,0.6065673828125,0.677734375,55.908203125,-161.9873046875,-1.708984375
252894.475035125,0.9920654296875,0.765625,0.677734375,55.908203125,-161.9873046875,-1.708984375
252894.475186958,0.9920654296875,0.765625,0.81396484375,55.908203125,-161.9873046875,-1.708984375
252894.489676458,0.9920654296875,0.765625,0.81396484375,55.908203125,-152.64892578125,-1.708984375
252894.489884833,0.9920654296875,0.765625,0.81396484375,55.908203125,-152.64892578125,1.708984375
252894.489967916,0.9920654296875,0.58447265625,0.81396484375,55.908203125,-152.64892578125,1.708984375
252894.490577166,0.9920654296875,0.58447265625,0.7344970703125,55.908203125,-152.64892578125,1.708984375
252894.508785333,0.9920654296875,0.58447265625,0.7344970703125,55.908203125,-135.25390625,1.708984375
252894.534419458,0.9920654296875,0.58447265625,0.7344970703125,55.908203125,-135.25390625,-13.671875
252894.542042875,0.905029296875,0.58447265625,0.7344970703125,55.908203125,-135.25390625,-13.671875
252894.542111416,0.905029296875,0.60400390625,0.7344970703125,55.908203125,-135.25390625,-13.671875
252894.5421645,0.905029296875,0.60400390625,0.75439453125,55.908203125,-135.25390625,-13.671875
252894.549650958,0.905029296875,0.60400390625,0.75439453125,55.908203125,-146.91162109375,-13.671875
252894.549770916,0.905029296875,0.60400390625,0.75439453125,55.908203125,-146.91162109375,-21.78955078125
252894.579544916,0.75537109375,0.60400390625,0.75439453125,55.908203125,-146.91162109375,-21.78955078125
252894.583341,0.75537109375,0.4569091796875,0.75439453125,55.908203125,-146.91162109375,-21.78955078125
252894.583405041,0.75537109375,0.4569091796875,0.64013671875,55.908203125,-146.91162109375,-21.78955078125
252894.583465333,0.75537109375,0.4569091796875,0.64013671875,94.66552734375,-146.91162109375,-21.78955078125
252894.608706541,0.6395263671875,0.4569091796875,0.64013671875,94.66552734375,-146.91162109375,-21.78955078125
252894.608768666,0.6395263671875,0.377685546875,0.64013671875,94.66552734375,-146.91162109375,-21.78955078125
252894.608822458,0.6395263671875,0.377685546875,0.555419921875,94.66552734375,-146.91162109375,-21.78955078125
252894.625364458,0.6395263671875,0.377685546875,0.555419921875,94.66552734375,-173.03466796875,-21.78955078125
252894.625600375,0.6395263671875,0.377685546875,0.555419921875,94.66552734375,-173.03466796875,6.8359375
252894.625776291,0.4749755859375,0.377685546875,0.555419921875,94.66552734375,-173.03466796875,6.8359375
252894.625829375,0.4749755859375,0.35400390625,0.555419921875,94.66552734375,-173.03466796875,6.8359375
252894.642056791,0.4749755859375,0.35400390625,0.555419921875,94.66552734375,-176.08642578125,6.8359375
252894.642113666,0.4749755859375,0.35400390625,0.555419921875,94.66552734375,-176.08642578125,18.98193359375
252894.669467541,0.2254638671875,0.35400390625,0.555419921875,94.66552734375,-176.08642578125,18.98193359375
252894.675472958,0.2254638671875,0.2608642578125,0.555419921875,94.66552734375,-176.08642578125,18.98193359375
252894.675569708,0.2254638671875,0.2608642578125,0.3792724609375,94.66552734375,-176.08642578125,18.98193359375
252894.675631208,0.2254638671875,0.2608642578125,0.3792724609375,52.001953125,-176.08642578125,18.98193359375
252894.68471225,0.07568359375,0.2608642578125,0.3792724609375,52.001953125,-176.08642578125,18.98193359375
252894.684869416,0.07568359375,0.1468505859375,0.3792724609375,52.001953125,-176.08642578125,18.98193359375
252894.692003458,0.07568359375,0.1468505859375,0.3138427734375,52.001953125,-176.08642578125,18.98193359375
252894.699739166,0.07568359375,0.1468505859375,0.3138427734375,52.001953125,-158.87451171875,18.98193359375
252894.699862541,0.07568359375,0.1468505859375,0.3138427734375,52.001953125,-158.87451171875,29.1748046875
252894.729619666,-0.1114501953125,0.1468505859375,0.3138427734375,52.001953125,-158.87451171875,29.1748046875
252894.729698416,-0.1114501953125,-0.0750732421875,0.3138427734375,52.001953125,-158.87451171875,29.1748046875
252894.732870083,-0.1114501953125,-0.0750732421875,0.0811767578125,52.001953125,-158.87451171875,29.1748046875
252894.732934583,-0.1114501953125,-0.0750732421875,0.0811767578125,50.4150390625,-158.87451171875,29.1748046875
252894.789968333,-0.2362060546875,-0.0750732421875,0.0811767578125,50.4150390625,-158.87451171875,29.1748046875
252894.790205666,-0.2362060546875,-0.12890625,0.0811767578125,50.4150390625,-158.87451171875,29.1748046875
252894.79030575,-0.2362060546875,-0.12890625,-0.0076904296875,50.4150390625,-158.87451171875,29.1748046875
252894.794198583,-0.2362060546875,-0.12890625,-0.0076904296875,25.390625,-158.87451171875,29.1748046875
252894.804589916,-0.3438720703125,-0.12890625,-0.0076904296875,25.390625,-158.87451171875,29.1748046875
252894.809395208,-0.3438720703125,-0.1414794921875,-0.0076904296875,25.390625,-158.87451171875,29.1748046875
252894.809525125,-0.3438720703125,-0.1414794921875,-0.0157470703125,25.390625,-158.87451171875,29.1748046875
252894.819721166,-0.3438720703125,-0.1414794921875,-0.0157470703125,25.390625,-93.994140625,29.1748046875
252894.825666333,-0.3438720703125,-0.1414794921875,-0.0157470703125,25.390625,-93.994140625,23.25439453125
252894.848897625,-0.504638671875,-0.1414794921875,-0.0157470703125,25.390625,-93.994140625,23.25439453125
252894.850314291,-0.504638671875,-0.31884765625,-0.0157470703125,25.390625,-93.994140625,23.25439453125
252894.850527541,-0.504638671875,-0.31884765625,-0.0860595703125,25.390625,-93.994140625,23.25439453125
252894.85065575,-0.504638671875,-0.31884765625,-0.0860595703125,0.48828125,-93.994140625,23.25439453125
252894.864707791,-0.484619140625,-0.31884765625,-0.0860595703125,0.48828125,-93.994140625,23.25439453125
252894.879687625,-0.484619140625,-0.25830078125,-0.0860595703125,0.48828125,-93.994140625,23.25439453125
252894.894654625,-0.484619140625,-0.25830078125,-0.0205078125,0.48828125,-93.994140625,23.25439453125
252894.894795791,-0.484619140625,-0.25830078125,-0.0205078125,0.48828125,-7.62939453125,23.25439453125
252894.913259583,-0.484619140625,-0.25830078125,-0.0205078125,0.48828125,-7.62939453125,7.568359375
252894.925294708,-0.4365234375,-0.25830078125,-0.0205078125,0.48828125,-7.62939453125,7.568359375
252894.9253765,-0.4365234375,-0.267578125,-0.0205078125,0.48828125,-7.62939453125,7.568359375
252894.925434375,-0.4365234375,-0.267578125,0.0765380859375,0.48828125,-7.62939453125,7.568359375
252894.92555825,-0.37451171875,-0.267578125,0.0765380859375,0.48828125,-7.62939453125,7.568359375
252894.953943875,-0.37451171875,-0.267578125,0.17626953125,0.48828125,-7.62939453125,7.568359375
252894.95583875,-0.37451171875,-0.267578125,0.17626953125,-48.52294921875,-7.62939453125,7.568359375
252894.956077458,-0.37451171875,-0.267578125,0.17626953125,-48.52294921875,46.5087890625,7.568359375
252894.956190875,-0.3099365234375,-0.267578125,0.17626953125,-48.52294921875,46.5087890625,7.568359375
252894.975583666,-0.3099365234375,-0.267578125,0.2510986328125,-48.52294921875,46.5087890625,7.568359375
252894.975652083,-0.3099365234375,-0.267578125,0.2510986328125,-51.513671875,46.5087890625,7.568359375
252894.97571475,-0.3099365234375,-0.267578125,0.2510986328125,-51.513671875,64.63623046875,7.568359375
252894.98459025,-0.232666015625,-0.267578125,0.2510986328125,-51.513671875,64.63623046875,7.568359375
252894.984791083,-0.232666015625,0.0350341796875,0.2510986328125,-51.513671875,64.63623046875,7.568359375
252894.984889625,-0.232666015625,0.0350341796875,0.4422607421875,-51.513671875,64.63623046875,7.568359375
252895.014460291,-0.232666015625,0.0350341796875,0.4422607421875,-51.513671875,85.3271484375,7.568359375
252895.025916,-0.232666015625,0.0350341796875,0.4422607421875,-51.513671875,85.3271484375,-4.8828125
252895.026039125,-0.166259765625,0.0350341796875,0.4422607421875,-51.513671875,85.3271484375,-4.8828125
252895.041776083,-0.166259765625,0.0350341796875,0.46533203125,-51.513671875,85.3271484375,-4.8828125
252895.041822666,-0.166259765625,0.0350341796875,0.46533203125,-35.5224609375,85.3271484375,-4.8828125
252895.041862625,-0.166259765625,0.0350341796875,0.46533203125,-35.5224609375,96.86279296875,-4.8828125
252895.046791458,-0.041259765625,0.0350341796875,0.46533203125,-35.5224609375,96.86279296875,-4.8828125
252895.046895958,-0.041259765625,0.0325927734375,0.46533203125,-35.5224609375,96.86279296875,-4.8828125
252895.075194083,-0.041259765625,0.0325927734375,0.5823974609375,-35.5224609375,96.86279296875,-4.8828125
252895.07539525,-0.041259765625,0.0325927734375,0.5823974609375,-35.5224609375,107.97119140625,-4.8828125
252895.0754945,-0.041259765625,0.0325927734375,0.5823974609375,-35.5224609375,107.97119140625,-6.40869140625
252895.075882708,0.064453125,0.0325927734375,0.5823974609375,-35.5224609375,107.97119140625,-6.40869140625
252895.0923945,0.064453125,0.0325927734375,0.623046875,-35.5224609375,107.97119140625,-6.40869140625
252895.092468625,0.064453125,0.0325927734375,0.623046875,-61.5234375,107.97119140625,-6.40869140625
252895.109737333,0.064453125,0.0325927734375,0.623046875,-61.5234375,111.14501953125,-6.40869140625
252895.119755083,0.2027587890625,0.0325927734375,0.623046875,-61.5234375,111.14501953125,-6.40869140625
252895.12546275,0.2027587890625,0.1939697265625,0.623046875,-61.5234375,111.14501953125,-6.40869140625
252895.125520666,0.2027587890625,0.1939697265625,0.6256103515625,-61.5234375,111.14501953125,-6.40869140625
252895.134725833,0.2027587890625,0.1939697265625,0.6256103515625,-61.5234375,113.037109375,-6.40869140625
252895.134861333,0.2027587890625,0.1939697265625,0.6256103515625,-61.5234375,113.037109375,-17.578125
252895.149828125,0.245849609375,0.1939697265625,0.6256103515625,-61.5234375,113.037109375,-17.578125
252895.149998083,0.245849609375,0.3983154296875,0.6256103515625,-61.5234375,113.037109375,-17.578125
252895.150091375,0.245849609375,0.3983154296875,0.7879638671875,-61.5234375,113.037109375,-17.578125
252895.165322333,0.245849609375,0.3983154296875,0.7879638671875,-61.5234375,120.30029296875,-17.578125
252895.165476791,0.245849609375,0.3983154296875,0.7879638671875,-61.5234375,120.30029296875,-19.71435546875
252895.179654083,0.288330078125,0.3983154296875,0.7879638671875,-61.5234375,120.30029296875,-19.71435546875
252895.179786375,0.288330078125,0.346923828125,0.7879638671875,-61.5234375,120.30029296875,-19.71435546875
252895.180873416,0.288330078125,0.346923828125,0.6552734375,-61.5234375,120.30029296875,-19.71435546875
252895.194603583,0.288330078125,0.346923828125,0.6552734375,-61.5234375,128.5400390625,-19.71435546875
252895.194725958,0.288330078125,0.346923828125,0.6552734375,-61.5234375,128.5400390625,-21.91162109375
252895.224513708,0.467041015625,0.346923828125,0.6552734375,-61.5234375,128.5400390625,-21.91162109375
252895.224648375,0.467041015625,0.6197509765625,0.6552734375,-61.5234375,128.5400390625,-21.91162109375
252895.225585791,0.467041015625,0.6197509765625,0.8388671875,-61.5234375,128.5400390625,-21.91162109375
252895.225725166,0.467041015625,0.6197509765625,0.8388671875,-84.228515625,128.5400390625,-21.91162109375
252895.242113208,0.5751953125,0.6197509765625,0.8388671875,-84.228515625,128.5400390625,-21.91162109375
252895.242179583,0.5751953125,0.515869140625,0.8388671875,-84.228515625,128.5400390625,-21.91162109375
252895.242235416,0.5751953125,0.515869140625,0.7635498046875,-84.228515625,128.5400390625,-21.91162109375
252895.258913,0.5751953125,0.515869140625,0.7635498046875,-84.228515625,145.69091796875,-21.91162109375
252895.258977666,0.5751953125,0.515869140625,0.7635498046875,-84.228515625,145.69091796875,-20.01953125
252895.269728291,0.7122802734375,0.515869140625,0.7635498046875,-84.228515625,145.69091796875,-20.01953125
252895.275135958,0.7122802734375,0.4930419921875,0.7635498046875,-84.228515625,145.69091796875,-20.01953125
252895.275226625,0.7122802734375,0.4930419921875,0.7474365234375,-84.228515625,145.69091796875,-20.01953125
252895.284776,0.7122802734375,0.4930419921875,0.7474365234375,-84.228515625,139.22119140625,-20.01953125
252895.284939333,0.7122802734375,0.4930419921875,0.7474365234375,-84.228515625,139.22119140625,-26.0009765625
252895.314156208,0.7828369140625,0.4930419921875,0.7474365234375,-84.228515625,139.22119140625,-26.0009765625
252895.315704041,0.7828369140625,0.76416015625,0.7474365234375,-84.228515625,139.22119140625,-26.0009765625
252895.315901166,0.7828369140625,0.76416015625,0.900146484375,-84.228515625,139.22119140625,-26.0009765625
252895.315972541,0.7828369140625,0.76416015625,0.900146484375,-88.0126953125,139.22119140625,-26.0009765625
252895.342163625,0.883544921875,0.76416015625,0.900146484375,-88.0126953125,139.22119140625,-26.0009765625
252895.342227916,0.883544921875,0.7225341796875,0.900146484375,-88.0126953125,139.22119140625,-26.0009765625
252895.342282541,0.883544921875,0.7225341796875,0.8680419921875,-88.0126953125,139.22119140625,-26.0009765625
252895.344827458,0.883544921875,0.7225341796875,0.8680419921875,-88.0126953125,124.81689453125,-26.0009765625
252895.344946791,0.883544921875,0.7225341796875,0.8680419921875,-88.0126953125,124.81689453125,-11.8408203125
252895.374751583,0.8604736328125,0.7225341796875,0.8680419921875,-88.0126953125,124.81689453125,-11.8408203125
252895.374924166,0.8604736328125,0.568603515625,0.8680419921875,-88.0126953125,124.81689453125,-11.8408203125
252895.375412083,0.8604736328125,0.568603515625,0.831787109375,-88.0126953125,124.81689453125,-11.8408203125
252895.389831375,0.8604736328125,0.568603515625,0.831787109375,-88.0126953125,114.07470703125,-11.8408203125
252895.38999425,0.8604736328125,0.568603515625,0.831787109375,-88.0126953125,114.07470703125,-9.033203125
252895.408836958,0.8756103515625,0.568603515625,0.831787109375,-88.0126953125,114.07470703125,-9.033203125
252895.409059583,0.8756103515625,0.686767578125,0.831787109375,-88.0126953125,114.07470703125,-9.033203125
252895.409113333,0.8756103515625,0.686767578125,0.819091796875,-88.0126953125,114.07470703125,-9.033203125
252895.4196425,0.8756103515625,0.686767578125,0.819091796875,-88.0126953125,109.92431640625,-9.033203125
252895.434583041,0.8756103515625,0.686767578125,0.819091796875,-88.0126953125,109.92431640625,-0.244140625
252895.449653791,0.9754638671875,0.686767578125,0.819091796875,-88.0126953125,109.92431640625,-0.244140625
252895.449819958,0.9754638671875,0.6949462890625,0.819091796875,-88.0126953125,109.92431640625,-0.244140625
252895.449930541,0.9754638671875,0.6949462890625,0.7978515625,-88.0126953125,109.92431640625,-0.244140625
252895.464536041,0.9754638671875,0.6949462890625,0.7978515625,-88.0126953125,102.96630859375,-0.244140625
252895.494270416,0.9754638671875,0.6949462890625,0.7978515625,-88.0126953125,102.96630859375,-5.615234375
252895.49438375,0.8856201171875,0.6949462890625,0.7978515625,-88.0126953125,102.96630859375,-5.615234375
252895.495078708,0.8856201171875,0.489990234375,0.7978515625,-88.0126953125,102.96630859375,-5.615234375
252895.524005083,0.8856201171875,0.489990234375,0.7978515625,-88.0126953125,98.0224609375,-5.615234375
252895.524130541,0.8856201171875,0.489990234375,0.7978515625,-88.0126953125,98.0224609375,-7.2021484375
252895.542307708,1.009765625,0.489990234375,0.7978515625,-88.0126953125,98.0224609375,-7.2021484375
252895.542372916,1.009765625,0.5421142578125,0.7978515625,-88.0126953125,98.0224609375,-7.2021484375
252895.542430833,1.009765625,0.5421142578125,0.7978515625,-88.0126953125,84.53369140625,-7.2021484375
252895.542485833,1.009765625,0.5421142578125,0.7978515625,-88.0126953125,84.53369140625,-9.82666015625
252895.559016041,0.9219970703125,0.5421142578125,0.7978515625,-88.0126953125,84.53369140625,-9.82666015625
252895.569893083,0.9219970703125,0.5623779296875,0.7978515625,-88.0126953125,84.53369140625,-9.82666015625
252895.575140083,0.9219970703125,0.5623779296875,0.5247802734375,-88.0126953125,84.53369140625,-9.82666015625
252895.575232125,0.9219970703125,0.5623779296875,0.5247802734375,-88.0126953125,73.3642578125,-9.82666015625
252895.575285666,0.9219970703125,0.5623779296875,0.5247802734375,-88.0126953125,73.3642578125,-9.27734375
252895.599662916,1.037109375,0.5623779296875,0.5247802734375,-88.0126953125,73.3642578125,-9.27734375
252895.599790958,1.037109375,0.6263427734375,0.5247802734375,-88.0126953125,73.3642578125,-9.27734375
252895.600252583,1.037109375,0.6263427734375,0.63330078125,-88.0126953125,73.3642578125,-9.27734375
252895.600355333,1.037109375,0.6263427734375,0.63330078125,-23.25439453125,73.3642578125,-9.27734375
252895.628507958,0.9449462890625,0.6263427734375,0.63330078125,-23.25439453125,73.3642578125,-9.27734375
252895.630157625,0.9449462890625,0.526611328125,0.63330078125,-23.25439453125,73.3642578125,-9.27734375
252895.630342416,0.9449462890625,0.526611328125,0.4686279296875,-23.25439453125,73.3642578125,-9.27734375
252895.63042675,0.9449462890625,0.526611328125,0.4686279296875,-22.88818359375,73.3642578125,-9.27734375
252895.644433583,0.9249267578125,0.526611328125,0.4686279296875,-22.88818359375,73.3642578125,-9.27734375
252895.644596083,0.9249267578125,0.5577392578125,0.4686279296875,-22.88818359375,73.3642578125,-9.27734375
252895.674522083,0.9249267578125,0.5577392578125,0.42919921875,-22.88818359375,73.3642578125,-9.27734375
252895.67463975,0.9249267578125,0.5577392578125,0.42919921875,-22.88818359375,55.419921875,-9.27734375
252895.675353333,0.9249267578125,0.5577392578125,0.42919921875,-22.88818359375,55.419921875,5.7373046875
252895.691556416,0.9183349609375,0.5577392578125,0.42919921875,-22.88818359375,55.419921875,5.7373046875
252895.691616708,0.9183349609375,0.59814453125,0.42919921875,-22.88818359375,55.419921875,5.7373046875
252895.691662833,0.9183349609375,0.59814453125,0.3646240234375,-22.88818359375,55.419921875,5.7373046875
252895.708373375,0.9183349609375,0.59814453125,0.3646240234375,-22.88818359375,55.419921875,10.6201171875
252895.724570958,0.9273681640625,0.59814453125,0.3646240234375,-22.88818359375,55.419921875,10.6201171875
252895.724623625,0.9273681640625,0.5555419921875,0.3646240234375,-22.88818359375,55.419921875,10.6201171875
252895.72467,0.9273681640625,0.5555419921875,0.331787109375,-22.88818359375,55.419921875,10.6201171875
252895.734489708,0.9273681640625,0.5555419921875,0.331787109375,-22.88818359375,35.64453125,10.6201171875
252895.734593666,0.9273681640625,0.5555419921875,0.331787109375,-22.88818359375,35.64453125,11.3525390625
252895.76478675,0.902587890625,0.5555419921875,0.331787109375,-22.88818359375,35.64453125,11.3525390625
252895.764914083,0.902587890625,0.5938720703125,0.331787109375,-22.88818359375,35.64453125,11.3525390625
252895.765616208,0.902587890625,0.5938720703125,0.343017578125,-22.88818359375,35.64453125,11.3525390625
252895.765748166,0.902587890625,0.5938720703125,0.343017578125,-22.39990234375,35.64453125,11.3525390625
NEW_REP,,,,,,
252895.779537,0.8797607421875,0.5938720703125,0.343017578125,-22.39990234375,35.64453125,11.3525390625
252895.779695083,0.8797607421875,0.5928955078125,0.343017578125,-22.39990234375,35.64453125,11.3525390625
252895.779748291,0.8797607421875,0.5928955078125,0.281005859375,-22.39990234375,35.64453125,11.3525390625
252895.794510541,0.8797607421875,0.5928955078125,0.281005859375,-22.39990234375,24.658203125,11.3525390625
252895.794633916,0.8797607421875,0.5928955078125,0.281005859375,-22.39990234375,24.658203125,18.798828125
252895.809488041,0.902099609375,0.5928955078125,0.281005859375,-22.39990234375,24.658203125,18.798828125
252895.809640375,0.902099609375,0.5543212890625,0.281005859375,-22.39990234375,24.658203125,18.798828125
252895.809694083,0.902099609375,0.5543212890625,0.2869873046875,-22.39990234375,24.658203125,18.798828125
252895.825492666,0.902099609375,0.5543212890625,0.2869873046875,-22.39990234375,20.263671875,18.798828125
252895.825550375,0.902099609375,0.5543212890625,0.2869873046875,-22.39990234375,20.263671875,17.08984375
252895.842183916,0.8890380859375,0.5543212890625,0.2869873046875,-22.39990234375,20.263671875,17.08984375
252895.858757541,0.8890380859375,0.5277099609375,0.2869873046875,-22.39990234375,20.263671875,17.08984375
252895.858826833,0.8890380859375,0.5277099609375,0.2869873046875,-22.39990234375,20.263671875,17.08984375
252895.858898666,0.8890380859375,0.5277099609375,0.2869873046875,-22.39990234375,13.85498046875,17.08984375
252895.858962666,0.8890380859375,0.5277099609375,0.2869873046875,-22.39990234375,13.85498046875,16.9677734375
252895.884485916,0.86181640625,0.5277099609375,0.2869873046875,-22.39990234375,13.85498046875,16.9677734375
252895.892055125,0.86181640625,0.4503173828125,0.2869873046875,-22.39990234375,13.85498046875,16.9677734375
252895.892120833,0.86181640625,0.4503173828125,0.2550048828125,-22.39990234375,13.85498046875,16.9677734375
252895.892182125,0.86181640625,0.4503173828125,0.2550048828125,-3.41796875,13.85498046875,16.9677734375
252895.899720708,0.852783203125,0.4503173828125,0.2550048828125,-3.41796875,13.85498046875,16.9677734375
252895.899900416,0.852783203125,0.3857421875,0.2550048828125,-3.41796875,13.85498046875,16.9677734375
252895.899979791,0.852783203125,0.3857421875,0.336669921875,-3.41796875,13.85498046875,16.9677734375
252895.914845916,0.852783203125,0.3857421875,0.336669921875,-3.41796875,-7.4462890625,16.9677734375
252895.915008166,0.852783203125,0.3857421875,0.336669921875,-3.41796875,-7.4462890625,2.44140625
252895.930020125,0.7928466796875,0.3857421875,0.336669921875,-3.41796875,-7.4462890625,2.44140625
252895.930133666,0.7928466796875,0.498046875,0.336669921875,-3.41796875,-7.4462890625,2.44140625
252895.930191708,0.7928466796875,0.498046875,0.0888671875,-3.41796875,-7.4462890625,2.44140625
252895.945109916,0.7928466796875,0.498046875,0.0888671875,-3.41796875,-6.4697265625,2.44140625
252895.945215291,0.7928466796875,0.498046875,0.0888671875,-3.41796875,-6.4697265625,-1.3427734375
252895.974856,0.787109375,0.498046875,0.0888671875,-3.41796875,-6.4697265625,-1.3427734375
252895.975034833,0.787109375,0.492919921875,0.0888671875,-3.41796875,-6.4697265625,-1.3427734375
252895.975130291,0.787109375,0.492919921875,0.0673828125,-3.41796875,-6.4697265625,-1.3427734375
252895.989591208,0.787109375,0.492919921875,0.0673828125,-3.41796875,-3.7841796875,-1.3427734375
252896.004568416,0.787109375,0.492919921875,0.0673828125,-3.41796875,-3.7841796875,-8.1787109375
252896.019546208,0.8580322265625,0.492919921875,0.0673828125,-3.41796875,-3.7841796875,-8.1787109375
252896.034775291,0.8580322265625,0.5760498046875,0.0673828125,-3.41796875,-3.7841796875,-8.1787109375
252896.079844541,0.8580322265625,0.5760498046875,0.09765625,-3.41796875,-3.7841796875,-8.1787109375
252896.080069625,0.8580322265625,0.5760498046875,0.09765625,-3.41796875,-6.40869140625,-8.1787109375
252896.080509833,0.8580322265625,0.5760498046875,0.09765625,-3.41796875,-6.40869140625,-6.8359375
252896.080693416,0.8193359375,0.5760498046875,0.09765625,-3.41796875,-6.40869140625,-6.8359375
252896.1095645,0.8193359375,0.5760498046875,0.09765625,4.7607421875,-6.40869140625,-6.8359375
252896.109643083,0.8193359375,0.5760498046875,0.09765625,4.7607421875,-4.21142578125,-6.8359375
252896.109730375,0.8193359375,0.5760498046875,0.09765625,4.7607421875,-4.21142578125,-4.8828125
252896.138897083,0.9354248046875,0.5760498046875,0.09765625,4.7607421875,-4.21142578125,-4.8828125
252896.168800333,0.9354248046875,0.5662841796875,0.09765625,4.7607421875,-4.21142578125,-4.8828125
252896.184898791,0.9354248046875,0.5662841796875,0.3388671875,4.7607421875,-4.21142578125,-4.8828125
252896.18547275,0.9354248046875,0.5662841796875,0.3388671875,4.7607421875,-0.3662109375,-4.8828125
252896.185666958,0.9674072265625,0.5662841796875,0.3388671875,4.7607421875,-0.3662109375,-4.8828125
252896.185867875,0.9674072265625,0.5662841796875,0.458984375,4.7607421875,-0.3662109375,-4.8828125
252896.199912291,0.9674072265625,0.5662841796875,0.458984375,4.7607421875,-10.498046875,-4.8828125
252896.200117875,0.9674072265625,0.5662841796875,0.458984375,4.7607421875,-10.498046875,-4.39453125
252896.229182125,1.060302734375,0.5662841796875,0.458984375,4.7607421875,-10.498046875,-4.39453125
252896.245044166,1.060302734375,0.518798828125,0.458984375,4.7607421875,-10.498046875,-4.39453125
252896.24521675,1.060302734375,0.518798828125,0.6051025390625,4.7607421875,-10.498046875,-4.39453125
252896.275311291,1.060302734375,0.518798828125,0.6051025390625,44.61669921875,-10.498046875,-4.39453125
252896.27558825,1.0772705078125,0.518798828125,0.6051025390625,44.61669921875,-10.498046875,-4.39453125
252896.27662925,1.0772705078125,0.518798828125,0.640380859375,44.61669921875,-10.498046875,-4.39453125
252896.276890541,1.0772705078125,0.518798828125,0.640380859375,48.52294921875,-10.498046875,-4.39453125
252896.309302791,1.0772705078125,0.518798828125,0.640380859375,48.52294921875,-10.498046875,-7.14111328125
252896.348877291,1.0821533203125,0.518798828125,0.640380859375,48.52294921875,-10.498046875,-7.14111328125
252896.350491083,1.0821533203125,0.546142578125,0.640380859375,48.52294921875,-10.498046875,-7.14111328125
252896.350717333,1.0821533203125,0.546142578125,0.65380859375,48.52294921875,-10.498046875,-7.14111328125
252896.350849083,1.0821533203125,0.546142578125,0.65380859375,57.06787109375,-10.498046875,-7.14111328125
252896.376120166,1.096435546875,0.546142578125,0.65380859375,57.06787109375,-10.498046875,-7.14111328125
252896.376200833,1.096435546875,0.5533447265625,0.65380859375,57.06787109375,-10.498046875,-7.14111328125
252896.376272,1.096435546875,0.5533447265625,0.6903076171875,57.06787109375,-10.498046875,-7.14111328125
252896.409818,1.09814453125,0.5533447265625,0.6903076171875,57.06787109375,-10.498046875,-7.14111328125
252896.409993458,1.09814453125,0.540283203125,0.6903076171875,57.06787109375,-10.498046875,-7.14111328125
252896.410577958,1.09814453125,0.540283203125,0.7445068359375,57.06787109375,-10.498046875,-7.14111328125
252896.410762791,1.09814453125,0.540283203125,0.7445068359375,54.50439453125,-10.498046875,-7.14111328125
252896.439665708,1.09814453125,0.540283203125,0.7445068359375,54.50439453125,-114.3798828125,-7.14111328125
252896.439827791,1.09814453125,0.540283203125,0.7445068359375,54.50439453125,-114.3798828125,-13.18359375
252896.440489333,1.0343017578125,0.540283203125,0.7445068359375,54.50439453125,-114.3798828125,-13.18359375
252896.440624791,1.0343017578125,0.639892578125,0.7445068359375,54.50439453125,-114.3798828125,-13.18359375
252896.468825333,1.0343017578125,0.639892578125,0.7445068359375,54.50439453125,-128.23486328125,-13.18359375
252896.476246125,1.0343017578125,0.639892578125,0.7445068359375,54.50439453125,-128.23486328125,-7.9345703125
252896.484858333,0.977294921875,0.639892578125,0.7445068359375,54.50439453125,-128.23486328125,-7.9345703125
252896.485097375,0.977294921875,0.5657958984375,0.7445068359375,54.50439453125,-128.23486328125,-7.9345703125
252896.485210125,0.977294921875,0.5657958984375,0.7432861328125,54.50439453125,-128.23486328125,-7.9345703125
252896.544681041,0.9317626953125,0.5657958984375,0.7432861328125,54.50439453125,-128.23486328125,-7.9345703125
252896.575557666,0.9317626953125,0.5430908203125,0.7432861328125,54.50439453125,-128.23486328125,-7.9345703125
252896.59175575,0.9317626953125,0.5430908203125,0.8299560546875,54.50439453125,-128.23486328125,-7.9345703125
252896.591844,0.9317626953125,0.5430908203125,0.8299560546875,80.26123046875,-128.23486328125,-7.9345703125
252896.591919083,0.843505859375,0.5430908203125,0.8299560546875,80.26123046875,-128.23486328125,-7.9345703125
252896.591988,0.843505859375,0.5430908203125,0.8358154296875,80.26123046875,-128.23486328125,-7.9345703125
252896.609438958,0.843505859375,0.5430908203125,0.8358154296875,80.26123046875,-139.6484375,-7.9345703125
252896.609514,0.843505859375,0.5430908203125,0.8358154296875,80.26123046875,-139.6484375,-5.0048828125
252896.634676791,0.572998046875,0.5430908203125,0.8358154296875,80.26123046875,-139.6484375,-5.0048828125
252896.6361095,0.572998046875,0.4530029296875,0.8358154296875,80.26123046875,-139.6484375,-5.0048828125
252896.636407875,0.572998046875,0.4530029296875,0.884521484375,80.26123046875,-139.6484375,-5.0048828125
252896.636544166,0.572998046875,0.4530029296875,0.884521484375,82.58056640625,-139.6484375,-5.0048828125
252896.649764875,0.503662109375,0.4530029296875,0.884521484375,82.58056640625,-139.6484375,-5.0048828125
252896.650020625,0.503662109375,0.426513671875,0.884521484375,82.58056640625,-139.6484375,-5.0048828125
252896.650172541,0.503662109375,0.426513671875,0.8302001953125,82.58056640625,-139.6484375,-5.0048828125
252896.679911875,0.503662109375,0.426513671875,0.8302001953125,82.58056640625,-125.06103515625,-5.0048828125
252896.680150291,0.503662109375,0.426513671875,0.8302001953125,82.58056640625,-125.06103515625,12.26806640625
252896.709631958,0.4163818359375,0.426513671875,0.8302001953125,82.58056640625,-125.06103515625,12.26806640625
252896.709867541,0.4163818359375,0.2979736328125,0.8302001953125,82.58056640625,-125.06103515625,12.26806640625
252896.710335833,0.4163818359375,0.2979736328125,0.751953125,82.58056640625,-125.06103515625,12.26806640625
252896.724623083,0.30322265625,0.2979736328125,0.751953125,82.58056640625,-125.06103515625,12.26806640625
252896.724902833,0.30322265625,0.1517333984375,0.751953125,82.58056640625,-125.06103515625,12.26806640625
252896.725046,0.30322265625,0.1517333984375,0.6285400390625,82.58056640625,-125.06103515625,12.26806640625
252896.739757916,0.30322265625,0.1517333984375,0.6285400390625,82.58056640625,-125.06103515625,9.8876953125
252896.760151666,0.1785888671875,0.1517333984375,0.6285400390625,82.58056640625,-125.06103515625,9.8876953125
252896.760235083,0.1785888671875,0.0439453125,0.6285400390625,82.58056640625,-125.06103515625,9.8876953125
252896.760309916,0.1785888671875,0.0439453125,0.352294921875,82.58056640625,-125.06103515625,9.8876953125
252896.769916625,0.1785888671875,0.0439453125,0.352294921875,82.58056640625,-130.37109375,9.8876953125
252896.770100166,0.1785888671875,0.0439453125,0.352294921875,82.58056640625,-130.37109375,9.33837890625
252896.799696708,0.0343017578125,0.0439453125,0.352294921875,82.58056640625,-130.37109375,9.33837890625
252896.799879916,0.0343017578125,0.01953125,0.352294921875,82.58056640625,-130.37109375,9.33837890625
252896.800534416,0.0343017578125,0.01953125,0.138427734375,82.58056640625,-130.37109375,9.33837890625
252896.800716833,0.0343017578125,0.01953125,0.138427734375,53.28369140625,-130.37109375,9.33837890625
252896.829777833,-0.111572265625,0.01953125,0.138427734375,53.28369140625,-130.37109375,9.33837890625
252896.830034083,-0.111572265625,-0.0107421875,0.138427734375,53.28369140625,-130.37109375,9.33837890625
252896.830666125,-0.111572265625,-0.0107421875,0.0113525390625,53.28369140625,-130.37109375,9.33837890625
252896.830917041,-0.111572265625,-0.0107421875,0.0113525390625,47.79052734375,-130.37109375,9.33837890625
252896.859395125,-0.23876953125,-0.0107421875,0.0113525390625,47.79052734375,-130.37109375,9.33837890625
252896.859471375,-0.23876953125,-0.0809326171875,0.0113525390625,47.79052734375,-130.37109375,9.33837890625
252896.876242916,-0.23876953125,-0.0809326171875,-0.006591796875,47.79052734375,-130.37109375,9.33837890625
252896.89283525,-0.23876953125,-0.0809326171875,-0.006591796875,47.79052734375,-111.083984375,9.33837890625
252896.892916041,-0.23876953125,-0.0809326171875,-0.006591796875,47.79052734375,-111.083984375,18.798828125
252896.892988833,-0.353271484375,-0.0809326171875,-0.006591796875,47.79052734375,-111.083984375,18.798828125
252896.8930595,-0.353271484375,-0.2822265625,-0.006591796875,47.79052734375,-111.083984375,18.798828125
252896.909407333,-0.353271484375,-0.2822265625,-0.006591796875,47.79052734375,-73.42529296875,18.798828125
252896.909492125,-0.353271484375,-0.2822265625,-0.006591796875,47.79052734375,-73.42529296875,22.64404296875
252896.934650166,-0.3736572265625,-0.2822265625,-0.006591796875,47.79052734375,-73.42529296875,22.64404296875
252896.934821125,-0.3736572265625,-0.3277587890625,-0.006591796875,47.79052734375,-73.42529296875,22.64404296875
252896.935519833,-0.3736572265625,-0.3277587890625,-0.0933837890625,47.79052734375,-73.42529296875,22.64404296875
252896.935663666,-0.3736572265625,-0.3277587890625,-0.0933837890625,-11.77978515625,-73.42529296875,22.64404296875
252896.979462708,-0.3780517578125,-0.3277587890625,-0.0933837890625,-11.77978515625,-73.42529296875,22.64404296875
252896.980885833,-0.3780517578125,-0.34326171875,-0.0933837890625,-11.77978515625,-73.42529296875,22.64404296875
252896.981077458,-0.3780517578125,-0.34326171875,0.017578125,-11.77978515625,-73.42529296875,22.64404296875
252896.981182958,-0.3780517578125,-0.34326171875,0.017578125,-11.77978515625,-5.67626953125,22.64404296875
252896.994672458,-0.3907470703125,-0.34326171875,0.017578125,-11.77978515625,-5.67626953125,22.64404296875
252896.994839666,-0.3907470703125,-0.3671875,0.017578125,-11.77978515625,-5.67626953125,22.64404296875
252896.994903416,-0.3907470703125,-0.3671875,0.1334228515625,-11.77978515625,-5.67626953125,22.64404296875
252897.009659958,-0.3907470703125,-0.3671875,0.1334228515625,-11.77978515625,32.65380859375,22.64404296875
252897.009822625,-0.3907470703125,-0.3671875,0.1334228515625,-11.77978515625,32.65380859375,9.94873046875
252897.02520025,-0.28857421875,-0.3671875,0.1334228515625,-11.77978515625,32.65380859375,9.94873046875
252897.025253125,-0.28857421875,-0.2147216796875,0.1334228515625,-11.77978515625,32.65380859375,9.94873046875
252897.02529975,-0.28857421875,-0.2147216796875,0.263916015625,-11.77978515625,32.65380859375,9.94873046875
252897.043414,-0.28857421875,-0.2147216796875,0.263916015625,-11.77978515625,58.9599609375,9.94873046875
252897.043513166,-0.28857421875,-0.2147216796875,0.263916015625,-11.77978515625,58.9599609375,2.44140625
252897.069806541,-0.17236328125,-0.2147216796875,0.263916015625,-11.77978515625,58.9599609375,2.44140625
252897.070003083,-0.17236328125,-0.0267333984375,0.263916015625,-11.77978515625,58.9599609375,2.44140625
252897.0766025,-0.17236328125,-0.0267333984375,0.4339599609375,-11.77978515625,58.9599609375,2.44140625
252897.076703916,-0.17236328125,-0.0267333984375,0.4339599609375,-72.20458984375,58.9599609375,2.44140625
252897.084754041,-0.10986328125,-0.0267333984375,0.4339599609375,-72.20458984375,58.9599609375,2.44140625
252897.085032291,-0.10986328125,0.079345703125,0.4339599609375,-72.20458984375,58.9599609375,2.44140625
252897.085163416,-0.10986328125,0.079345703125,0.529541015625,-72.20458984375,58.9599609375,2.44140625
252897.11476375,-0.10986328125,0.079345703125,0.529541015625,-72.20458984375,98.2666015625,2.44140625
252897.126933625,-0.10986328125,0.079345703125,0.529541015625,-72.20458984375,98.2666015625,-8.48388671875
252897.127086958,0.0267333984375,0.079345703125,0.529541015625,-72.20458984375,98.2666015625,-8.48388671875
252897.127198,0.0267333984375,0.1343994140625,0.529541015625,-72.20458984375,98.2666015625,-8.48388671875
252897.129843583,0.0267333984375,0.1343994140625,0.529541015625,-72.20458984375,109.9853515625,-8.48388671875
252897.130024583,0.0267333984375,0.1343994140625,0.529541015625,-72.20458984375,109.9853515625,-2.50244140625
252897.17528225,0.154541015625,0.1343994140625,0.529541015625,-72.20458984375,109.9853515625,-2.50244140625
252897.175528,0.154541015625,0.07470703125,0.529541015625,-72.20458984375,109.9853515625,-2.50244140625
252897.180254416,0.154541015625,0.07470703125,0.7939453125,-72.20458984375,109.9853515625,-2.50244140625
252897.18034925,0.154541015625,0.07470703125,0.7939453125,-35.21728515625,109.9853515625,-2.50244140625
252897.189746791,0.1689453125,0.07470703125,0.7939453125,-35.21728515625,109.9853515625,-2.50244140625
252897.190017791,0.1689453125,0.0625,0.7939453125,-35.21728515625,109.9853515625,-2.50244140625
252897.190170791,0.1689453125,0.0625,0.840576171875,-35.21728515625,109.9853515625,-2.50244140625
252897.209521791,0.1689453125,0.0625,0.840576171875,-35.21728515625,109.0087890625,-2.50244140625
252897.209604083,0.1689453125,0.0625,0.840576171875,-35.21728515625,109.0087890625,0.0
252897.249284666,0.3431396484375,0.0625,0.840576171875,-35.21728515625,109.0087890625,0.0
252897.250985,0.3431396484375,0.2718505859375,0.840576171875,-35.21728515625,109.0087890625,0.0
252897.25115375,0.3431396484375,0.2718505859375,0.9019775390625,-35.21728515625,109.0087890625,0.0
252897.279978583,0.3431396484375,0.2718505859375,0.9019775390625,-105.28564453125,109.0087890625,0.0
252897.280178583,0.3492431640625,0.2718505859375,0.9019775390625,-105.28564453125,109.0087890625,0.0
252897.280752916,0.3492431640625,0.2880859375,0.9019775390625,-105.28564453125,109.0087890625,0.0
252897.280986416,0.3492431640625,0.2880859375,0.845703125,-105.28564453125,109.0087890625,0.0
252897.309546458,0.486572265625,0.2880859375,0.845703125,-105.28564453125,109.0087890625,0.0
252897.309622125,0.486572265625,0.28125,0.845703125,-105.28564453125,109.0087890625,0.0
252897.309682666,0.486572265625,0.28125,0.8118896484375,-105.28564453125,109.0087890625,0.0
252897.326239625,0.577880859375,0.28125,0.8118896484375,-105.28564453125,109.0087890625,0.0
252897.342521583,0.577880859375,0.4423828125,0.8118896484375,-105.28564453125,109.0087890625,0.0
252897.342588125,0.577880859375,0.4423828125,0.839599609375,-105.28564453125,109.0087890625,0.0
252897.342650583,0.577880859375,0.4423828125,0.839599609375,-90.8203125,109.0087890625,0.0
252897.342720208,0.577880859375,0.4423828125,0.839599609375,-90.8203125,121.09375,0.0
252897.385115583,0.716064453125,0.4423828125,0.839599609375,-90.8203125,121.09375,0.0
252897.385314041,0.716064453125,0.4931640625,0.839599609375,-90.8203125,121.09375,0.0
252897.386004416,0.716064453125,0.4931640625,0.837890625,-90.8203125,121.09375,0.0
252897.386192041,0.716064453125,0.4931640625,0.837890625,-72.69287109375,121.09375,0.0
252897.408994625,0.726318359375,0.4931640625,0.837890625,-72.69287109375,121.09375,0.0
252897.409225791,0.726318359375,0.4810791015625,0.837890625,-72.69287109375,121.09375,0.0
252897.409285083,0.726318359375,0.4810791015625,0.6920166015625,-72.69287109375,121.09375,0.0
252897.414748916,0.726318359375,0.4810791015625,0.6920166015625,-72.69287109375,120.91064453125,0.0
252897.414910833,0.726318359375,0.4810791015625,0.6920166015625,-72.69287109375,120.91064453125,-6.2255859375
252897.444760041,0.8978271484375,0.4810791015625,0.6920166015625,-72.69287109375,120.91064453125,-6.2255859375
252897.446428583,0.8978271484375,0.74365234375,0.6920166015625,-72.69287109375,120.91064453125,-6.2255859375
252897.475367291,0.8978271484375,0.74365234375,0.781494140625,-72.69287109375,120.91064453125,-6.2255859375
252897.475630375,0.8978271484375,0.74365234375,0.781494140625,-86.73095703125,120.91064453125,-6.2255859375
252897.475761916,0.8624267578125,0.74365234375,0.781494140625,-86.73095703125,120.91064453125,-6.2255859375
252897.476106916,0.8624267578125,0.626708984375,0.781494140625,-86.73095703125,120.91064453125,-6.2255859375
252897.489676208,0.8624267578125,0.626708984375,0.781494140625,-86.73095703125,105.65185546875,-6.2255859375
252897.489873333,0.8624267578125,0.626708984375,0.781494140625,-86.73095703125,105.65185546875,-1.03759765625
252897.534874875,0.9329833984375,0.626708984375,0.781494140625,-86.73095703125,105.65185546875,-1.03759765625
252897.535078708,0.9329833984375,0.6444091796875,0.781494140625,-86.73095703125,105.65185546875,-1.03759765625
252897.53558725,0.9329833984375,0.6444091796875,0.851318359375,-86.73095703125,105.65185546875,-1.03759765625
252897.535797125,0.9329833984375,0.6444091796875,0.851318359375,-77.880859375,105.65185546875,-1.03759765625
252897.565029291,0.92724609375,0.6444091796875,0.851318359375,-77.880859375,105.65185546875,-1.03759765625
252897.566329375,0.92724609375,0.671142578125,0.851318359375,-77.880859375,105.65185546875,-1.03759765625
252897.566502041,0.92724609375,0.671142578125,0.8040771484375,-77.880859375,105.65185546875,-1.03759765625
252897.594589666,0.960205078125,0.671142578125,0.8040771484375,-77.880859375,105.65185546875,-1.03759765625
252897.594786875,0.960205078125,0.64111328125,0.8040771484375,-77.880859375,105.65185546875,-1.03759765625
252897.595416083,0.960205078125,0.64111328125,0.8743896484375,-77.880859375,105.65185546875,-1.03759765625
252897.609886583,0.960205078125,0.64111328125,0.8743896484375,-77.880859375,100.28076171875,-1.03759765625
252897.610084416,0.960205078125,0.64111328125,0.8743896484375,-77.880859375,100.28076171875,15.869140625
252897.626853541,0.9466552734375,0.64111328125,0.8743896484375,-77.880859375,100.28076171875,15.869140625
252897.626934916,0.9466552734375,0.5372314453125,0.8743896484375,-77.880859375,100.28076171875,15.869140625
252897.627006083,0.9466552734375,0.5372314453125,0.7235107421875,-77.880859375,100.28076171875,15.869140625
252897.643474166,0.9466552734375,0.5372314453125,0.7235107421875,-77.880859375,75.86669921875,15.869140625
252897.643553833,0.9466552734375,0.5372314453125,0.7235107421875,-77.880859375,75.86669921875,13.916015625
252897.700616,0.9422607421875,0.5372314453125,0.7235107421875,-77.880859375,75.86669921875,13.916015625
252897.700957166,0.9422607421875,0.554931640625,0.7235107421875,-77.880859375,75.86669921875,13.916015625
252897.701114125,0.9422607421875,0.554931640625,0.697509765625,-77.880859375,75.86669921875,13.916015625
252897.701316791,0.9422607421875,0.554931640625,0.697509765625,-34.97314453125,75.86669921875,13.916015625
252897.729716333,0.9302978515625,0.554931640625,0.697509765625,-34.97314453125,75.86669921875,13.916015625
252897.729895875,0.9302978515625,0.580322265625,0.697509765625,-34.97314453125,75.86669921875,13.916015625
252897.730986375,0.9302978515625,0.580322265625,0.6591796875,-34.97314453125,75.86669921875,13.916015625
252897.744771333,0.8680419921875,0.580322265625,0.6591796875,-34.97314453125,75.86669921875,13.916015625
252897.744995375,0.8680419921875,0.51708984375,0.6591796875,-34.97314453125,75.86669921875,13.916015625
252897.745069708,0.8680419921875,0.51708984375,0.4388427734375,-34.97314453125,75.86669921875,13.916015625
252897.775428541,0.8680419921875,0.51708984375,0.4388427734375,-34.97314453125,24.169921875,13.916015625
252897.775493583,0.8680419921875,0.51708984375,0.4388427734375,-34.97314453125,24.169921875,9.8876953125
252897.775546791,0.8309326171875,0.51708984375,0.4388427734375,-34.97314453125,24.169921875,9.8876953125
252897.775597541,0.8309326171875,0.6583251953125,0.4388427734375,-34.97314453125,24.169921875,9.8876953125
252897.775647583,0.8309326171875,0.6583251953125,0.4580078125,-34.97314453125,24.169921875,9.8876953125
252897.791809166,0.8309326171875,0.6583251953125,0.4580078125,-34.97314453125,18.24951171875,9.8876953125
252897.808491583,0.8309326171875,0.6583251953125,0.4580078125,-34.97314453125,18.24951171875,14.70947265625
252897.825314125,0.773681640625,0.6583251953125,0.4580078125,-34.97314453125,18.24951171875,14.70947265625
252897.8253835,0.773681640625,0.6185302734375,0.4580078125,-34.97314453125,18.24951171875,14.70947265625
252897.825444125,0.773681640625,0.6185302734375,0.327880859375,-34.97314453125,18.24951171875,14.70947265625
252897.834670708,0.773681640625,0.6185302734375,0.327880859375,-34.97314453125,18.06640625,14.70947265625
252897.834816875,0.773681640625,0.6185302734375,0.327880859375,-34.97314453125,18.06640625,15.0146484375
252897.864655583,0.8577880859375,0.6185302734375,0.327880859375,-34.97314453125,18.06640625,15.0146484375
252897.864792083,0.8577880859375,0.3831787109375,0.327880859375,-34.97314453125,18.06640625,15.0146484375
252897.865392833,0.8577880859375,0.3831787109375,0.36376953125,-34.97314453125,18.06640625,15.0146484375
252897.865515708,0.8577880859375,0.3831787109375,0.36376953125,-5.79833984375,18.06640625,15.0146484375
252897.891774958,0.891845703125,0.3831787109375,0.36376953125,-5.79833984375,18.06640625,15.0146484375
252897.891831208,0.891845703125,0.46142578125,0.36376953125,-5.79833984375,18.06640625,15.0146484375
252897.891883041,0.891845703125,0.46142578125,0.581298828125,-5.79833984375,18.06640625,15.0146484375
252897.894510625,0.891845703125,0.46142578125,0.581298828125,-5.79833984375,-6.2255859375,15.0146484375
252897.894611375,0.891845703125,0.46142578125,0.581298828125,-5.79833984375,-6.2255859375,-8.544921875
252897.909538291,0.7725830078125,0.46142578125,0.581298828125,-5.79833984375,-6.2255859375,-8.544921875
252897.909708791,0.7725830078125,0.57861328125,0.581298828125,-5.79833984375,-6.2255859375,-8.544921875
252897.909797791,0.7725830078125,0.57861328125,0.25341796875,-5.79833984375,-6.2255859375,-8.544921875
NEW_REP,,,,,,
252897.9284885,0.7725830078125,0.57861328125,0.25341796875,-5.79833984375,-9.033203125,-8.544921875
252897.9285775,0.7725830078125,0.57861328125,0.25341796875,-5.79833984375,-9.033203125,-3.72314453125
252897.954697208,0.796875,0.57861328125,0.25341796875,-5.79833984375,-9.033203125,-3.72314453125
252897.969973208,0.796875,0.6475830078125,0.25341796875,-5.79833984375,-9.033203125,-3.72314453125
252897.970168708,0.796875,0.6475830078125,0.171630859375,-5.79833984375,-9.033203125,-3.72314453125
252897.970231333,0.796875,0.6475830078125,0.171630859375,-5.67626953125,-9.033203125,-3.72314453125
252897.97060875,0.79833984375,0.6475830078125,0.171630859375,-5.67626953125,-9.033203125,-3.72314453125
252897.99247225,0.79833984375,0.6475830078125,0.23779296875,-5.67626953125,-9.033203125,-3.72314453125
252897.992550708,0.79833984375,0.6475830078125,0.23779296875,13.61083984375,-9.033203125,-3.72314453125
252898.015170375,0.79833984375,0.6475830078125,0.23779296875,13.61083984375,2.86865234375,-3.72314453125
252898.015315416,0.792236328125,0.6475830078125,0.23779296875,13.61083984375,2.86865234375,-3.72314453125
252898.015767375,0.792236328125,0.4842529296875,0.23779296875,13.61083984375,2.86865234375,-3.72314453125
252898.015909083,0.792236328125,0.4842529296875,0.24072265625,13.61083984375,2.86865234375,-3.72314453125
252898.044842583,0.792236328125,0.4842529296875,0.24072265625,13.61083984375,-2.13623046875,-3.72314453125
252898.045203625,0.792236328125,0.4842529296875,0.24072265625,13.61083984375,-2.13623046875,-1.8310546875
252898.059658666,0.882568359375,0.4842529296875,0.24072265625,13.61083984375,-2.13623046875,-1.8310546875
252898.059818666,0.882568359375,0.5797119140625,0.24072265625,13.61083984375,-2.13623046875,-1.8310546875
252898.059873666,0.882568359375,0.5797119140625,0.498291015625,13.61083984375,-2.13623046875,-1.8310546875
252898.088834625,0.9344482421875,0.5797119140625,0.498291015625,13.61083984375,-2.13623046875,-1.8310546875
252898.090249958,0.9344482421875,0.5718994140625,0.498291015625,13.61083984375,-2.13623046875,-1.8310546875
252898.090386416,0.9344482421875,0.5718994140625,0.61767578125,13.61083984375,-2.13623046875,-1.8310546875
252898.105064375,0.9344482421875,0.5718994140625,0.61767578125,47.36328125,-2.13623046875,-1.8310546875
252898.10531225,1.0206298828125,0.5718994140625,0.61767578125,47.36328125,-2.13623046875,-1.8310546875
252898.105416916,1.0206298828125,0.480712890625,0.61767578125,47.36328125,-2.13623046875,-1.8310546875
252898.105741875,1.0206298828125,0.480712890625,0.6605224609375,47.36328125,-2.13623046875,-1.8310546875
252898.125820583,1.0206298828125,0.480712890625,0.6605224609375,47.36328125,-19.1650390625,-1.8310546875
252898.125893375,1.0206298828125,0.480712890625,0.6605224609375,47.36328125,-19.1650390625,-13.00048828125
252898.134986708,1.0899658203125,0.480712890625,0.6605224609375,47.36328125,-19.1650390625,-13.00048828125
252898.135151833,1.0899658203125,0.5052490234375,0.6605224609375,47.36328125,-19.1650390625,-13.00048828125
252898.135252916,1.0899658203125,0.5052490234375,0.7562255859375,47.36328125,-19.1650390625,-13.00048828125
252898.149964,1.0899658203125,0.5052490234375,0.7562255859375,47.36328125,-36.19384765625,-13.00048828125
252898.150116833,1.0899658203125,0.5052490234375,0.7562255859375,47.36328125,-36.19384765625,-14.58740234375
252898.164900416,1.09326171875,0.5052490234375,0.7562255859375,47.36328125,-36.19384765625,-14.58740234375
252898.165074041,1.09326171875,0.52099609375,0.7562255859375,47.36328125,-36.19384765625,-14.58740234375
252898.165166875,1.09326171875,0.52099609375,0.8006591796875,47.36328125,-36.19384765625,-14.58740234375
252898.179846541,1.09326171875,0.52099609375,0.8006591796875,47.36328125,-62.31689453125,-14.58740234375
252898.17998925,1.09326171875,0.52099609375,0.8006591796875,47.36328125,-62.31689453125,-18.73779296875
252898.224666458,1.0843505859375,0.52099609375,0.8006591796875,47.36328125,-62.31689453125,-18.73779296875
252898.228415833,1.0843505859375,0.54345703125,0.8006591796875,47.36328125,-62.31689453125,-18.73779296875
252898.228494791,1.0843505859375,0.54345703125,0.799072265625,47.36328125,-62.31689453125,-18.73779296875
252898.228567583,1.0843505859375,0.54345703125,0.799072265625,47.36328125,-77.45361328125,-18.73779296875
252898.259117875,1.0693359375,0.54345703125,0.799072265625,47.36328125,-77.45361328125,-18.73779296875
252898.259184125,1.0693359375,0.6519775390625,0.799072265625,47.36328125,-77.45361328125,-18.73779296875
252898.259245583,1.0693359375,0.6519775390625,0.7620849609375,47.36328125,-77.45361328125,-18.73779296875
252898.270001708,1.079345703125,0.6519775390625,0.7620849609375,47.36328125,-77.45361328125,-18.73779296875
252898.275954708,1.079345703125,0.686767578125,0.7620849609375,47.36328125,-77.45361328125,-18.73779296875
252898.276020208,1.079345703125,0.686767578125,0.7762451171875,47.36328125,-77.45361328125,-18.73779296875
252898.284830583,1.079345703125,0.686767578125,0.7762451171875,47.36328125,-102.96630859375,-18.73779296875
252898.284988416,1.079345703125,0.686767578125,0.7762451171875,47.36328125,-102.96630859375,-25.5126953125
252898.315164375,1.022216796875,0.686767578125,0.7762451171875,47.36328125,-102.96630859375,-25.5126953125
252898.315261458,1.022216796875,0.5487060546875,0.7762451171875,47.36328125,-102.96630859375,-25.5126953125
252898.316691708,1.022216796875,0.5487060546875,0.685791015625,47.36328125,-102.96630859375,-25.5126953125
252898.329661041,1.022216796875,0.5487060546875,0.685791015625,47.36328125,-112.12158203125,-25.5126953125
252898.359205541,1.022216796875,0.5487060546875,0.685791015625,47.36328125,-112.12158203125,-28.6865234375
252898.359275958,0.998779296875,0.5487060546875,0.685791015625,47.36328125,-112.12158203125,-28.6865234375
252898.359342833,0.998779296875,0.598876953125,0.685791015625,47.36328125,-112.12158203125,-28.6865234375
252898.359424708,0.998779296875,0.598876953125,0.7119140625,47.36328125,-112.12158203125,-28.6865234375
252898.359639333,0.998779296875,0.598876953125,0.7119140625,47.36328125,-124.3896484375,-28.6865234375
252898.3597125,0.998779296875,0.598876953125,0.7119140625,47.36328125,-124.3896484375,-26.30615234375
252898.37605525,0.9515380859375,0.598876953125,0.7119140625,47.36328125,-124.3896484375,-26.30615234375
252898.376120458,0.9515380859375,0.646240234375,0.7119140625,47.36328125,-124.3896484375,-26.30615234375
252898.37617975,0.9515380859375,0.646240234375,0.7081298828125,47.36328125,-124.3896484375,-26.30615234375
252898.404399541,0.9515380859375,0.646240234375,0.7081298828125,47.36328125,-130.06591796875,-26.30615234375
252898.404559041,0.9515380859375,0.646240234375,0.7081298828125,47.36328125,-130.06591796875,-21.484375
252898.425662708,0.8638916015625,0.646240234375,0.7081298828125,47.36328125,-130.06591796875,-21.484375
252898.425727541,0.8638916015625,0.5626220703125,0.7081298828125,47.36328125,-130.06591796875,-21.484375
252898.425788125,0.8638916015625,0.5626220703125,0.71240234375,47.36328125,-130.06591796875,-21.484375
252898.449595708,0.8095703125,0.5626220703125,0.71240234375,47.36328125,-130.06591796875,-21.484375
252898.451054708,0.8095703125,0.546630859375,0.71240234375,47.36328125,-130.06591796875,-21.484375
252898.45121125,0.8095703125,0.546630859375,0.73974609375,47.36328125,-130.06591796875,-21.484375
252898.451293666,0.8095703125,0.546630859375,0.73974609375,63.29345703125,-130.06591796875,-21.484375
