Timestamp,Accel_X,Accel_Y,Accel_Z,Gyro_X,Gyro_Y,Gyro_Z
24914.163450583,-0.1258544921875,0.0,0.0,0.0,0.0,0.0
24914.192010208,-0.135986328125,0.0,0.0,0.0,0.0,0.0
24914.206874916,-0.1512451171875,0.0,0.0,0.0,0.0,0.0
24914.20842175,-0.1512451171875,0.083740234375,0.0,0.0,0.0,0.0
24914.237043666,-0.14794921875,0.083740234375,0.0,0.0,0.0,0.0
24914.237142208,-0.14794921875,0.082763671875,0.0,0.0,0.0,0.0
24914.252221708,-0.12158203125,0.082763671875,0.0,0.0,0.0,0.0
24914.252260166,-0.12158203125,0.0576171875,0.0,0.0,0.0,0.0
24914.282104166,-0.112548828125,0.0576171875,0.0,0.0,0.0,0.0
24914.282415625,-0.112548828125,0.0552978515625,0.0,0.0,0.0,0.0
24914.282685291,-0.112548828125,0.0552978515625,0.985595703125,0.0,0.0,0.0
24914.299065541,-0.125244140625,0.0552978515625,0.985595703125,0.0,0.0,0.0
24914.299102125,-0.125244140625,0.0631103515625,0.985595703125,0.0,0.0,0.0
24914.327217125,-0.1436767578125,0.0631103515625,0.985595703125,0.0,0.0,0.0
24914.327285458,-0.1436767578125,0.0670166015625,0.985595703125,0.0,0.0,0.0
24914.327741125,-0.1436767578125,0.0670166015625,0.9644775390625,0.0,0.0,0.0
24914.349063083,-0.1436767578125,0.0670166015625,0.9644775390625,0.0,-1.77001953125,0.0
24914.373428666,-0.1495361328125,0.0670166015625,0.9644775390625,0.0,-1.77001953125,0.0
24914.373488291,-0.1495361328125,0.0555419921875,0.9644775390625,0.0,-1.77001953125,0.0
24914.373561458,-0.1495361328125,0.0555419921875,0.9581298828125,0.0,-1.77001953125,0.0
24914.402955916,-0.1402587890625,0.0555419921875,0.9581298828125,0.0,-1.77001953125,0.0
24914.403086708,-0.1402587890625,0.0643310546875,0.9581298828125,0.0,-1.77001953125,0.0
24914.403118958,-0.1402587890625,0.0643310546875,0.9541015625,0.0,-1.77001953125,0.0
24914.403150833,-0.1402587890625,0.0643310546875,0.9541015625,0.0,1.03759765625,0.0
24914.433306916,-0.129638671875,0.0643310546875,0.9541015625,0.0,1.03759765625,0.0
24914.433608791,-0.129638671875,0.0665283203125,0.9541015625,0.0,1.03759765625,0.0
24914.433706375,-0.129638671875,0.0665283203125,0.9837646484375,0.0,1.03759765625,0.0
24914.434724541,-0.129638671875,0.0665283203125,0.9837646484375,2.50244140625,1.03759765625,0.0
24914.449473833,-0.1279296875,0.0665283203125,0.9837646484375,2.50244140625,1.03759765625,0.0
24914.449756583,-0.1279296875,0.07470703125,0.9837646484375,2.50244140625,1.03759765625,0.0
24914.449850041,-0.1279296875,0.07470703125,0.9810791015625,2.50244140625,1.03759765625,0.0
24914.462394416,-0.1279296875,0.07470703125,0.9810791015625,2.50244140625,-0.3662109375,0.0
24914.464324208,-0.1279296875,0.07470703125,0.9810791015625,2.50244140625,-0.3662109375,0.91552734375
24914.477149166,-0.13232421875,0.07470703125,0.9810791015625,2.50244140625,-0.3662109375,0.91552734375
24914.477465708,-0.13232421875,0.0606689453125,0.9810791015625,2.50244140625,-0.3662109375,0.91552734375
24914.477790583,-0.13232421875,0.0606689453125,0.9725341796875,2.50244140625,-0.3662109375,0.91552734375
24914.49222425,-0.13232421875,0.0606689453125,0.9725341796875,2.50244140625,-1.03759765625,0.91552734375
24914.492503875,-0.13232421875,0.0606689453125,0.9725341796875,2.50244140625,-1.03759765625,1.52587890625
24914.5069175,-0.1348876953125,0.0606689453125,0.9725341796875,2.50244140625,-1.03759765625,1.52587890625
24914.508445333,-0.1348876953125,0.0567626953125,0.9725341796875,2.50244140625,-1.03759765625,1.52587890625
24914.508640291,-0.1348876953125,0.0567626953125,0.966796875,2.50244140625,-1.03759765625,1.52587890625
24914.523170458,-0.1348876953125,0.0567626953125,0.966796875,2.50244140625,-0.9765625,1.52587890625
24914.523403125,-0.1348876953125,0.0567626953125,0.966796875,2.50244140625,-0.9765625,2.197265625
24914.537793666,-0.1376953125,0.0567626953125,0.966796875,2.50244140625,-0.9765625,2.197265625
24914.537885,-0.1376953125,0.0614013671875,0.966796875,2.50244140625,-0.9765625,2.197265625
24914.540642708,-0.1376953125,0.0614013671875,0.94873046875,2.50244140625,-0.9765625,2.197265625
24914.553046916,-0.1376953125,0.0614013671875,0.94873046875,2.50244140625,-0.8544921875,2.197265625
24914.55313825,-0.1376953125,0.0614013671875,0.94873046875,2.50244140625,-0.8544921875,2.197265625
24914.568452833,-0.1495361328125,0.0614013671875,0.94873046875,2.50244140625,-0.8544921875,2.197265625
24914.568493375,-0.1495361328125,0.0594482421875,0.94873046875,2.50244140625,-0.8544921875,2.197265625
24914.568582833,-0.1495361328125,0.0594482421875,0.9512939453125,2.50244140625,-0.8544921875,2.197265625
24914.582143958,-0.1495361328125,0.0594482421875,0.9512939453125,2.50244140625,0.244140625,2.197265625
24914.582229791,-0.1495361328125,0.0594482421875,0.9512939453125,2.50244140625,0.244140625,1.77001953125
24914.598859916,-0.13330078125,0.0594482421875,0.9512939453125,2.50244140625,0.244140625,1.77001953125
24914.598895791,-0.13330078125,0.0821533203125,0.9512939453125,2.50244140625,0.244140625,1.77001953125
24914.598926125,-0.13330078125,0.0821533203125,0.9581298828125,2.50244140625,0.244140625,1.77001953125
24914.6155295,-0.13330078125,0.0821533203125,0.9581298828125,2.50244140625,1.953125,1.77001953125
24914.615567416,-0.13330078125,0.0821533203125,0.9581298828125,2.50244140625,1.953125,1.64794921875
24914.632212791,-0.124755859375,0.0821533203125,0.9581298828125,2.50244140625,1.953125,1.64794921875
24914.632249041,-0.124755859375,0.0516357421875,0.9581298828125,2.50244140625,1.953125,1.64794921875
24914.632279208,-0.124755859375,0.0516357421875,0.980224609375,2.50244140625,1.953125,1.64794921875
24914.642645666,-0.124755859375,0.0516357421875,0.980224609375,2.50244140625,1.0986328125,1.64794921875
24914.6488415,-0.124755859375,0.0516357421875,0.980224609375,2.50244140625,1.0986328125,1.8310546875
24914.656421916,-0.1357421875,0.0516357421875,0.980224609375,2.50244140625,1.0986328125,1.8310546875
24914.656504875,-0.1357421875,0.0487060546875,0.980224609375,2.50244140625,1.0986328125,1.8310546875
24914.65740225,-0.1357421875,0.0487060546875,0.9661865234375,2.50244140625,1.0986328125,1.8310546875
24914.671861541,-0.1357421875,0.0487060546875,0.9661865234375,2.50244140625,0.06103515625,1.8310546875
24914.671947083,-0.1357421875,0.0487060546875,0.9661865234375,2.50244140625,0.06103515625,2.13623046875
24914.687379041,-0.1375732421875,0.0487060546875,0.9661865234375,2.50244140625,0.06103515625,2.13623046875
24914.687475916,-0.1375732421875,0.0716552734375,0.9661865234375,2.50244140625,0.06103515625,2.13623046875
24914.687509083,-0.1375732421875,0.0716552734375,0.973876953125,2.50244140625,0.06103515625,2.13623046875
24914.701909083,-0.1375732421875,0.0716552734375,0.973876953125,2.50244140625,-0.06103515625,2.13623046875
24914.702001333,-0.1375732421875,0.0716552734375,0.973876953125,2.50244140625,-0.06103515625,1.52587890625
24914.71644275,-0.1383056640625,0.0716552734375,0.973876953125,2.50244140625,-0.06103515625,1.52587890625
24914.716529125,-0.1383056640625,0.0648193359375,0.973876953125,2.50244140625,-0.06103515625,1.52587890625
24914.718691916,-0.1383056640625,0.0648193359375,0.970947265625,2.50244140625,-0.06103515625,1.52587890625
24914.731988416,-0.1383056640625,0.0648193359375,0.970947265625,2.50244140625,1.0986328125,1.52587890625
24914.732022708,-0.1383056640625,0.0648193359375,0.970947265625,2.50244140625,1.0986328125,1.03759765625
24914.748934083,-0.1307373046875,0.0648193359375,0.970947265625,2.50244140625,1.0986328125,1.03759765625
24914.748983125,-0.1307373046875,0.053955078125,0.970947265625,2.50244140625,1.0986328125,1.03759765625
24914.74902,-0.1307373046875,0.053955078125,0.9771728515625,2.50244140625,1.0986328125,1.03759765625
24914.765675333,-0.1307373046875,0.053955078125,0.9771728515625,2.50244140625,0.3662109375,1.03759765625
24914.765720041,-0.1307373046875,0.053955078125,0.9771728515625,2.50244140625,0.3662109375,1.77001953125
24914.782478125,-0.1329345703125,0.053955078125,0.9771728515625,2.50244140625,0.3662109375,1.77001953125
24914.782525625,-0.1329345703125,0.0618896484375,0.9771728515625,2.50244140625,0.3662109375,1.77001953125
24914.782567708,-0.1329345703125,0.0618896484375,0.974853515625,2.50244140625,0.3662109375,1.77001953125
24914.791695875,-0.1329345703125,0.0618896484375,0.974853515625,2.50244140625,-0.6103515625,1.77001953125
24914.791864833,-0.1329345703125,0.0618896484375,0.974853515625,2.50244140625,-0.6103515625,2.197265625
24914.806398583,-0.1390380859375,0.0618896484375,0.974853515625,2.50244140625,-0.6103515625,2.197265625
24914.806496541,-0.1390380859375,0.068115234375,0.974853515625,2.50244140625,-0.6103515625,2.197265625
24914.807324916,-0.1390380859375,0.068115234375,0.9766845703125,2.50244140625,-0.6103515625,2.197265625
24914.821836708,-0.1390380859375,0.068115234375,0.9766845703125,2.50244140625,-1.46484375,2.197265625
24914.821924291,-0.1390380859375,0.068115234375,0.9766845703125,2.50244140625,-1.46484375,2.3193359375
24914.836737708,-0.1458740234375,0.068115234375,0.9766845703125,2.50244140625,-1.46484375,2.3193359375
24914.836844333,-0.1458740234375,0.059326171875,0.9766845703125,2.50244140625,-1.46484375,2.3193359375
24914.836877958,-0.1458740234375,0.059326171875,0.9638671875,2.50244140625,-1.46484375,2.3193359375
24914.853218458,-0.1458740234375,0.059326171875,0.9638671875,2.50244140625,-1.220703125,2.3193359375
24914.853256416,-0.1458740234375,0.059326171875,0.9638671875,2.50244140625,-1.220703125,1.8310546875
24914.868547416,-0.132568359375,0.059326171875,0.9638671875,2.50244140625,-1.220703125,1.8310546875
24914.868639291,-0.132568359375,0.0596923828125,0.9638671875,2.50244140625,-1.220703125,1.8310546875
24914.868671375,-0.132568359375,0.0596923828125,0.9541015625,2.50244140625,-1.220703125,1.8310546875
24914.883509041,-0.132568359375,0.0596923828125,0.9541015625,2.50244140625,0.244140625,1.8310546875
24914.883606166,-0.132568359375,0.0596923828125,0.9541015625,2.50244140625,0.244140625,1.77001953125
24914.898999125,-0.1142578125,0.0596923828125,0.9541015625,2.50244140625,0.244140625,1.77001953125
24914.899039875,-0.1142578125,0.0560302734375,0.9541015625,2.50244140625,0.244140625,1.77001953125
24914.899071458,-0.1142578125,0.0560302734375,0.9713134765625,2.50244140625,0.244140625,1.77001953125
24914.915686166,-0.1142578125,0.0560302734375,0.9713134765625,2.50244140625,0.244140625,1.77001953125
24914.915726458,-0.1142578125,0.0560302734375,0.9713134765625,2.50244140625,0.244140625,1.46484375
24914.932210583,-0.117919921875,0.0560302734375,0.9713134765625,2.50244140625,0.244140625,1.46484375
24914.932251333,-0.117919921875,0.0577392578125,0.9713134765625,2.50244140625,0.244140625,1.46484375
24914.932284208,-0.117919921875,0.0577392578125,0.978271484375,2.50244140625,0.244140625,1.46484375
24914.942566541,-0.117919921875,0.0577392578125,0.978271484375,2.50244140625,-1.0986328125,1.46484375
24914.94869175,-0.117919921875,0.0577392578125,0.978271484375,2.50244140625,-1.0986328125,2.3193359375
24914.956627208,-0.1427001953125,0.0577392578125,0.978271484375,2.50244140625,-1.0986328125,2.3193359375
24914.957701791,-0.1427001953125,0.0596923828125,0.978271484375,2.50244140625,-1.0986328125,2.3193359375
24914.957760666,-0.1427001953125,0.0596923828125,0.9608154296875,2.50244140625,-1.0986328125,2.3193359375
24914.973254958,-0.1427001953125,0.0596923828125,0.9608154296875,2.50244140625,-0.54931640625,2.3193359375
24914.973347708,-0.1427001953125,0.0596923828125,0.9608154296875,2.50244140625,-0.54931640625,2.685546875
24915.001930875,-0.138427734375,0.0596923828125,0.9608154296875,2.50244140625,-0.54931640625,2.685546875
24915.002016291,-0.138427734375,0.046630859375,0.9608154296875,2.50244140625,-0.54931640625,2.685546875
24915.002799166,-0.138427734375,0.046630859375,0.9556884765625,2.50244140625,-0.54931640625,2.685546875
24915.002881958,-0.138427734375,0.046630859375,0.9556884765625,3.662109375,-0.54931640625,2.685546875
24915.048394458,-0.1239013671875,0.046630859375,0.9556884765625,3.662109375,-0.54931640625,2.685546875
24915.048857916,-0.1239013671875,0.0634765625,0.9556884765625,3.662109375,-0.54931640625,2.685546875
24915.04895575,-0.1239013671875,0.0634765625,0.9739990234375,3.662109375,-0.54931640625,2.685546875
24915.053917,-0.1239013671875,0.0634765625,0.9739990234375,3.96728515625,-0.54931640625,2.685546875
24915.06375425,-0.12646484375,0.0634765625,0.9739990234375,3.96728515625,-0.54931640625,2.685546875
24915.064904791,-0.12646484375,0.062255859375,0.9739990234375,3.96728515625,-0.54931640625,2.685546875
24915.06500875,-0.12646484375,0.062255859375,0.9708251953125,3.96728515625,-0.54931640625,2.685546875
24915.082554833,-0.12646484375,0.062255859375,0.9708251953125,3.96728515625,-0.54931640625,1.0986328125
24915.093067833,-0.1412353515625,0.062255859375,0.9708251953125,3.96728515625,-0.54931640625,1.0986328125
24915.099311291,-0.1412353515625,0.07666015625,0.9708251953125,3.96728515625,-0.54931640625,1.0986328125
24915.099390958,-0.1412353515625,0.07666015625,0.9735107421875,3.96728515625,-0.54931640625,1.0986328125
24915.107419125,-0.1412353515625,0.07666015625,0.9735107421875,3.96728515625,-1.220703125,1.0986328125
24915.107520041,-0.1412353515625,0.07666015625,0.9735107421875,3.96728515625,-1.220703125,0.732421875
24915.121457208,-0.1370849609375,0.07666015625,0.9735107421875,3.96728515625,-1.220703125,0.732421875
24915.121555833,-0.1370849609375,0.06982421875,0.9735107421875,3.96728515625,-1.220703125,0.732421875
24915.122464875,-0.1370849609375,0.06982421875,0.9600830078125,3.96728515625,-1.220703125,0.732421875
24915.138104458,-0.1370849609375,0.06982421875,0.9600830078125,3.96728515625,-0.91552734375,0.732421875
24915.138189375,-0.1370849609375,0.06982421875,0.9600830078125,3.96728515625,-0.91552734375,1.52587890625
24915.16696625,-0.1226806640625,0.06982421875,0.9600830078125,3.96728515625,-0.91552734375,1.52587890625
24915.167005708,-0.1226806640625,0.0565185546875,0.9600830078125,3.96728515625,-0.91552734375,1.52587890625
24915.167037583,-0.1226806640625,0.0565185546875,0.96142578125,3.96728515625,-0.91552734375,1.52587890625
24915.182278416,-0.1226806640625,0.0565185546875,0.96142578125,3.96728515625,-0.54931640625,1.52587890625
24915.183986541,-0.1226806640625,0.0565185546875,0.96142578125,3.96728515625,-0.54931640625,2.86865234375
24915.212014166,-0.125244140625,0.0565185546875,0.96142578125,3.96728515625,-0.54931640625,2.86865234375
24915.212258291,-0.125244140625,0.06787109375,0.96142578125,3.96728515625,-0.54931640625,2.86865234375
24915.213716041,-0.125244140625,0.06787109375,0.97216796875,3.96728515625,-0.54931640625,2.86865234375
24915.213920166,-0.125244140625,0.06787109375,0.97216796875,-0.06103515625,-0.54931640625,2.86865234375
24915.232493166,-0.13525390625,0.06787109375,0.97216796875,-0.06103515625,-0.54931640625,2.86865234375
24915.2325365,-0.13525390625,0.064208984375,0.97216796875,-0.06103515625,-0.54931640625,2.86865234375
24915.232571291,-0.13525390625,0.064208984375,0.966552734375,-0.06103515625,-0.54931640625,2.86865234375
24915.241827875,-0.13525390625,0.064208984375,0.966552734375,-0.06103515625,-0.244140625,2.86865234375
24915.249341208,-0.13525390625,0.064208984375,0.966552734375,-0.06103515625,-0.244140625,2.5634765625
24915.272156875,-0.1358642578125,0.064208984375,0.966552734375,-0.06103515625,-0.244140625,2.5634765625
24915.272253166,-0.1358642578125,0.0382080078125,0.966552734375,-0.06103515625,-0.244140625,2.5634765625
24915.274005791,-0.1358642578125,0.0382080078125,0.958740234375,-0.06103515625,-0.244140625,2.5634765625
24915.274082791,-0.1358642578125,0.0382080078125,0.958740234375,4.21142578125,-0.244140625,2.5634765625
24915.302368791,-0.1280517578125,0.0382080078125,0.958740234375,4.21142578125,-0.244140625,2.5634765625
24915.302459291,-0.1280517578125,0.0548095703125,0.958740234375,4.21142578125,-0.244140625,2.5634765625
24915.316711958,-0.1280517578125,0.0548095703125,0.9786376953125,4.21142578125,-0.244140625,2.5634765625
24915.316804708,-0.1280517578125,0.0548095703125,0.9786376953125,2.5634765625,-0.244140625,2.5634765625
24915.318442625,-0.1295166015625,0.0548095703125,0.9786376953125,2.5634765625,-0.244140625,2.5634765625
24915.318524291,-0.1295166015625,0.0643310546875,0.9786376953125,2.5634765625,-0.244140625,2.5634765625
24915.33287325,-0.1295166015625,0.0643310546875,0.9786376953125,2.5634765625,-0.42724609375,2.5634765625
24915.33296225,-0.1295166015625,0.0643310546875,0.9786376953125,2.5634765625,-0.42724609375,1.708984375
24915.36296775,-0.12744140625,0.0643310546875,0.9786376953125,2.5634765625,-0.42724609375,1.708984375
24915.363068375,-0.12744140625,0.0557861328125,0.9786376953125,2.5634765625,-0.42724609375,1.708984375
24915.363158375,-0.12744140625,0.0557861328125,0.9693603515625,2.5634765625,-0.42724609375,1.708984375
24915.364010833,-0.12744140625,0.0557861328125,0.9693603515625,1.15966796875,-0.42724609375,1.708984375
24915.38246725,-0.1346435546875,0.0557861328125,0.9693603515625,1.15966796875,-0.42724609375,1.708984375
24915.382510583,-0.1346435546875,0.06591796875,0.9693603515625,1.15966796875,-0.42724609375,1.708984375
24915.382544375,-0.1346435546875,0.06591796875,0.95849609375,1.15966796875,-0.42724609375,1.708984375
24915.399189041,-0.1346435546875,0.06591796875,0.95849609375,1.15966796875,-1.15966796875,1.708984375
24915.399229958,-0.1346435546875,0.06591796875,0.95849609375,1.15966796875,-1.15966796875,2.13623046875
24915.406448125,-0.1339111328125,0.06591796875,0.95849609375,1.15966796875,-1.15966796875,2.13623046875
24915.406522958,-0.1339111328125,0.045166015625,0.95849609375,1.15966796875,-1.15966796875,2.13623046875
24915.4077345,-0.1339111328125,0.045166015625,0.9610595703125,1.15966796875,-1.15966796875,2.13623046875
24915.421841916,-0.1339111328125,0.045166015625,0.9610595703125,1.15966796875,-0.8544921875,2.13623046875
24915.421920875,-0.1339111328125,0.045166015625,0.9610595703125,1.15966796875,-0.8544921875,1.52587890625
24915.43659725,-0.1343994140625,0.045166015625,0.9610595703125,1.15966796875,-0.8544921875,1.52587890625
24915.436685958,-0.1343994140625,0.0391845703125,0.9610595703125,1.15966796875,-0.8544921875,1.52587890625
24915.438109791,-0.1343994140625,0.0391845703125,0.945068359375,1.15966796875,-0.8544921875,1.52587890625
24915.451955166,-0.1343994140625,0.0391845703125,0.945068359375,1.15966796875,0.30517578125,1.52587890625
24915.452032458,-0.1343994140625,0.0391845703125,0.945068359375,1.15966796875,0.30517578125,1.03759765625
24915.496680958,-0.1177978515625,0.0391845703125,0.945068359375,1.15966796875,0.30517578125,1.03759765625
24915.49677475,-0.1177978515625,0.0740966796875,0.945068359375,1.15966796875,0.30517578125,1.03759765625
24915.515967041,-0.1177978515625,0.0740966796875,0.9471435546875,1.15966796875,0.30517578125,1.03759765625
24915.516011916,-0.1177978515625,0.0740966796875,0.9471435546875,4.21142578125,0.30517578125,1.03759765625
24915.516046416,-0.1051025390625,0.0740966796875,0.9471435546875,4.21142578125,0.30517578125,1.03759765625
24915.516079041,-0.1051025390625,0.038330078125,0.9471435546875,4.21142578125,0.30517578125,1.03759765625
24915.516109833,-0.1051025390625,0.038330078125,0.9183349609375,4.21142578125,0.30517578125,1.03759765625
24915.532697416,-0.1051025390625,0.038330078125,0.9183349609375,4.21142578125,1.220703125,1.03759765625
24915.532775708,-0.1051025390625,0.038330078125,0.9183349609375,4.21142578125,1.220703125,0.79345703125
24915.542738375,-0.106201171875,0.038330078125,0.9183349609375,4.21142578125,1.220703125,0.79345703125
24915.548993041,-0.106201171875,0.0584716796875,0.9183349609375,4.21142578125,1.220703125,0.79345703125
24915.549036958,-0.106201171875,0.0584716796875,0.9427490234375,4.21142578125,1.220703125,0.79345703125
24915.557845541,-0.106201171875,0.0584716796875,0.9427490234375,4.21142578125,3.35693359375,0.79345703125
24915.557886833,-0.106201171875,0.0584716796875,0.9427490234375,4.21142578125,3.35693359375,-1.220703125
24915.574080791,-0.1202392578125,0.0584716796875,0.9427490234375,4.21142578125,3.35693359375,-1.220703125
24915.574186666,-0.1202392578125,0.07080078125,0.9427490234375,4.21142578125,3.35693359375,-1.220703125
24915.582366375,-0.1202392578125,0.07080078125,0.97119140625,4.21142578125,3.35693359375,-1.220703125
24915.586839375,-0.1202392578125,0.07080078125,0.97119140625,4.21142578125,3.96728515625,-1.220703125
24915.58693025,-0.1202392578125,0.07080078125,0.97119140625,4.21142578125,3.96728515625,-0.1220703125
24915.603397458,-0.135498046875,0.07080078125,0.97119140625,4.21142578125,3.96728515625,-0.1220703125
24915.616527625,-0.135498046875,0.0380859375,0.97119140625,4.21142578125,3.96728515625,-0.1220703125
24915.618228916,-0.135498046875,0.0380859375,0.97119140625,4.21142578125,3.35693359375,-0.1220703125
24915.618328125,-0.135498046875,0.0380859375,0.97119140625,4.21142578125,3.35693359375,1.52587890625
24915.63373175,-0.1424560546875,0.0380859375,0.97119140625,4.21142578125,3.35693359375,1.52587890625
24915.633828416,-0.1424560546875,0.0513916015625,0.97119140625,4.21142578125,3.35693359375,1.52587890625
24915.649191791,-0.1424560546875,0.0513916015625,1.0223388671875,4.21142578125,3.35693359375,1.52587890625
24915.649232166,-0.1424560546875,0.0513916015625,1.0223388671875,4.21142578125,2.86865234375,1.52587890625
24915.651221541,-0.1424560546875,0.0513916015625,1.0223388671875,4.21142578125,2.86865234375,1.89208984375
24915.665763291,-0.134033203125,0.0513916015625,1.0223388671875,4.21142578125,2.86865234375,1.89208984375
24915.665804083,-0.134033203125,0.05908203125,1.0223388671875,4.21142578125,2.86865234375,1.89208984375
24915.665836708,-0.134033203125,0.05908203125,0.9857177734375,4.21142578125,2.86865234375,1.89208984375
24915.69193625,-0.134033203125,0.05908203125,0.9857177734375,4.21142578125,1.40380859375,1.89208984375
24915.707022583,-0.134033203125,0.05908203125,0.9857177734375,4.21142578125,1.40380859375,2.8076171875
24915.707127333,-0.1259765625,0.05908203125,0.9857177734375,4.21142578125,1.40380859375,2.8076171875
24915.715792583,-0.1259765625,0.045654296875,0.9857177734375,4.21142578125,1.40380859375,2.8076171875
24915.715831041,-0.1259765625,0.045654296875,0.9857177734375,4.21142578125,0.30517578125,2.8076171875
24915.751554875,-0.1109619140625,0.045654296875,0.9857177734375,4.21142578125,0.30517578125,2.8076171875
24915.751656666,-0.1109619140625,0.0037841796875,0.9857177734375,4.21142578125,0.30517578125,2.8076171875
24915.767579333,-0.1109619140625,0.0037841796875,0.923583984375,4.21142578125,0.30517578125,2.8076171875
24915.76769775,-0.1109619140625,0.0037841796875,0.923583984375,-1.52587890625,0.30517578125,2.8076171875
24915.767758375,-0.1131591796875,0.0037841796875,0.923583984375,-1.52587890625,0.30517578125,2.8076171875
24915.768852833,-0.1131591796875,-0.002685546875,0.923583984375,-1.52587890625,0.30517578125,2.8076171875
24915.796902458,-0.1131591796875,-0.002685546875,0.923583984375,-12.26806640625,0.30517578125,2.8076171875
24915.796992625,-0.1131591796875,-0.002685546875,0.923583984375,-12.26806640625,1.8310546875,2.8076171875
24915.797708041,-0.1131591796875,-0.002685546875,0.923583984375,-12.26806640625,1.8310546875,-2.0751953125
24915.815914458,-0.123291015625,-0.002685546875,0.923583984375,-12.26806640625,1.8310546875,-2.0751953125
24915.815954041,-0.123291015625,-0.0712890625,0.923583984375,-12.26806640625,1.8310546875,-2.0751953125
24915.815985916,-0.123291015625,-0.0712890625,0.740478515625,-12.26806640625,1.8310546875,-2.0751953125
24915.841814375,-0.082275390625,-0.0712890625,0.740478515625,-12.26806640625,1.8310546875,-2.0751953125
24915.84191075,-0.082275390625,-0.109375,0.740478515625,-12.26806640625,1.8310546875,-2.0751953125
24915.84933475,-0.082275390625,-0.109375,0.59716796875,-12.26806640625,1.8310546875,-2.0751953125
24915.849376416,-0.082275390625,-0.109375,0.59716796875,-73.42529296875,1.8310546875,-2.0751953125
24915.856563833,0.0025634765625,-0.109375,0.59716796875,-73.42529296875,1.8310546875,-2.0751953125
24915.856674625,0.0025634765625,-0.0245361328125,0.59716796875,-73.42529296875,1.8310546875,-2.0751953125
24915.857634875,0.0025634765625,-0.0245361328125,0.4937744140625,-73.42529296875,1.8310546875,-2.0751953125
24915.872287458,0.0025634765625,-0.0245361328125,0.4937744140625,-73.42529296875,40.4052734375,-2.0751953125
24915.872380791,0.0025634765625,-0.0245361328125,0.4937744140625,-73.42529296875,40.4052734375,-30.09033203125
24915.901782,0.0416259765625,-0.0245361328125,0.4937744140625,-73.42529296875,40.4052734375,-30.09033203125
24915.902891,0.0416259765625,-0.011474609375,0.4937744140625,-73.42529296875,40.4052734375,-30.09033203125
24915.903006166,0.0416259765625,-0.011474609375,0.458740234375,-73.42529296875,40.4052734375,-30.09033203125
24915.90307075,0.0416259765625,-0.011474609375,0.458740234375,-118.95751953125,40.4052734375,-30.09033203125
24915.916473041,0.109130859375,-0.011474609375,0.458740234375,-118.95751953125,40.4052734375,-30.09033203125
24915.917549958,0.109130859375,0.1004638671875,0.458740234375,-118.95751953125,40.4052734375,-30.09033203125
24915.919212166,0.109130859375,0.1004638671875,0.5015869140625,-118.95751953125,40.4052734375,-30.09033203125
24915.93242475,0.109130859375,0.1004638671875,0.5015869140625,-118.95751953125,72.8759765625,-30.09033203125
24915.932463125,0.109130859375,0.1004638671875,0.5015869140625,-118.95751953125,72.8759765625,-64.39208984375
24915.948993416,0.2723388671875,0.1004638671875,0.5015869140625,-118.95751953125,72.8759765625,-64.39208984375
24915.949033916,0.2723388671875,0.3563232421875,0.5015869140625,-118.95751953125,72.8759765625,-64.39208984375
24915.949066416,0.2723388671875,0.3563232421875,0.5394287109375,-118.95751953125,72.8759765625,-64.39208984375
24915.965971166,0.2723388671875,0.3563232421875,0.5394287109375,-118.95751953125,90.8203125,-64.39208984375
24915.966015833,0.2723388671875,0.3563232421875,0.5394287109375,-118.95751953125,90.8203125,-89.78271484375
24915.976627458,0.36083984375,0.3563232421875,0.5394287109375,-118.95751953125,90.8203125,-89.78271484375
24915.982372291,0.36083984375,0.371826171875,0.5394287109375,-118.95751953125,90.8203125,-89.78271484375
24915.982534833,0.36083984375,0.371826171875,0.564453125,-118.95751953125,90.8203125,-89.78271484375
24915.992395666,0.36083984375,0.371826171875,0.564453125,-118.95751953125,96.8017578125,-89.78271484375
24915.992490291,0.36083984375,0.371826171875,0.564453125,-118.95751953125,96.8017578125,-96.61865234375
24916.007015708,0.40966796875,0.371826171875,0.564453125,-118.95751953125,96.8017578125,-96.61865234375
24916.021778708,0.40966796875,0.2230224609375,0.564453125,-118.95751953125,96.8017578125,-96.61865234375
24916.02185675,0.40966796875,0.2230224609375,0.5848388671875,-118.95751953125,96.8017578125,-96.61865234375
24916.022787416,0.40966796875,0.2230224609375,0.5848388671875,-118.95751953125,98.08349609375,-96.61865234375
24916.022821666,0.40966796875,0.2230224609375,0.5848388671875,-118.95751953125,98.08349609375,-107.5439453125
24916.036498083,0.52294921875,0.2230224609375,0.5848388671875,-118.95751953125,98.08349609375,-107.5439453125
24916.036533458,0.52294921875,0.4215087890625,0.5848388671875,-118.95751953125,98.08349609375,-107.5439453125
24916.037435958,0.52294921875,0.4215087890625,0.5977783203125,-118.95751953125,98.08349609375,-107.5439453125
24916.051969416,0.52294921875,0.4215087890625,0.5977783203125,-118.95751953125,97.5341796875,-107.5439453125
24916.052081833,0.52294921875,0.4215087890625,0.5977783203125,-118.95751953125,97.5341796875,-137.3291015625
24916.096756166,0.7919921875,0.4215087890625,0.5977783203125,-118.95751953125,97.5341796875,-137.3291015625
24916.0995965,0.7919921875,0.9700927734375,0.5977783203125,-118.95751953125,97.5341796875,-137.3291015625
24916.099634458,0.7919921875,0.9700927734375,0.62939453125,-118.95751953125,97.5341796875,-137.3291015625
24916.099667083,0.7919921875,0.9700927734375,0.62939453125,-108.45947265625,97.5341796875,-137.3291015625
24916.126822041,0.735595703125,0.9700927734375,0.62939453125,-108.45947265625,97.5341796875,-137.3291015625
24916.126908625,0.735595703125,0.800537109375,0.62939453125,-108.45947265625,97.5341796875,-137.3291015625
24916.1280105,0.735595703125,0.800537109375,0.5928955078125,-108.45947265625,97.5341796875,-137.3291015625
24916.128098416,0.735595703125,0.800537109375,0.5928955078125,-108.45947265625,79.1015625,-137.3291015625
24916.156815125,0.76611328125,0.800537109375,0.5928955078125,-108.45947265625,79.1015625,-137.3291015625
24916.156907875,0.76611328125,0.380615234375,0.5928955078125,-108.45947265625,79.1015625,-137.3291015625
24916.15766575,0.76611328125,0.380615234375,0.4434814453125,-108.45947265625,79.1015625,-137.3291015625
24916.157755416,0.76611328125,0.380615234375,0.4434814453125,-78.43017578125,79.1015625,-137.3291015625
24916.172125333,0.8536376953125,0.380615234375,0.4434814453125,-78.43017578125,79.1015625,-137.3291015625
24916.173169208,0.8536376953125,0.5009765625,0.4434814453125,-78.43017578125,79.1015625,-137.3291015625
24916.173284583,0.8536376953125,0.5009765625,0.357666015625,-78.43017578125,79.1015625,-137.3291015625
24916.215902833,0.8536376953125,0.5009765625,0.357666015625,-78.43017578125,89.53857421875,-137.3291015625
24916.218334625,0.8536376953125,0.5009765625,0.357666015625,-78.43017578125,89.53857421875,-119.140625
24916.218658958,0.964111328125,0.5009765625,0.357666015625,-78.43017578125,89.53857421875,-119.140625
24916.218809666,0.964111328125,0.791259765625,0.357666015625,-78.43017578125,89.53857421875,-119.140625
24916.232737208,0.964111328125,0.791259765625,0.357666015625,-78.43017578125,96.0693359375,-119.140625
24916.23277725,0.964111328125,0.791259765625,0.357666015625,-78.43017578125,96.0693359375,-120.7275390625
24916.260524958,1.10400390625,0.791259765625,0.357666015625,-78.43017578125,96.0693359375,-120.7275390625
24916.263094166,1.10400390625,1.02392578125,0.357666015625,-78.43017578125,96.0693359375,-120.7275390625
24916.263402625,1.10400390625,1.02392578125,0.321533203125,-78.43017578125,96.0693359375,-120.7275390625
24916.277568708,1.10400390625,1.02392578125,0.321533203125,10.55908203125,96.0693359375,-120.7275390625
24916.277864708,1.0450439453125,1.02392578125,0.321533203125,10.55908203125,96.0693359375,-120.7275390625
24916.277964541,1.0450439453125,0.758056640625,0.321533203125,10.55908203125,96.0693359375,-120.7275390625
24916.278374416,1.0450439453125,0.758056640625,0.3251953125,10.55908203125,96.0693359375,-120.7275390625
24916.299228208,1.0450439453125,0.758056640625,0.3251953125,10.55908203125,57.0068359375,-120.7275390625
24916.299267041,1.0450439453125,0.758056640625,0.3251953125,10.55908203125,57.0068359375,-77.7587890625
24916.3069645,0.9847412109375,0.758056640625,0.3251953125,10.55908203125,57.0068359375,-77.7587890625
24916.307076291,0.9847412109375,0.6112060546875,0.3251953125,10.55908203125,57.0068359375,-77.7587890625
24916.307136458,0.9847412109375,0.6112060546875,0.282470703125,10.55908203125,57.0068359375,-77.7587890625
24916.322178833,0.9847412109375,0.6112060546875,0.282470703125,10.55908203125,55.6640625,-77.7587890625
24916.322296,0.9847412109375,0.6112060546875,0.282470703125,10.55908203125,55.6640625,-34.66796875
24916.336714958,0.9625244140625,0.6112060546875,0.282470703125,10.55908203125,55.6640625,-34.66796875
24916.336797208,0.9625244140625,0.6083984375,0.282470703125,10.55908203125,55.6640625,-34.66796875
24916.337872916,0.9625244140625,0.6083984375,0.368408203125,10.55908203125,55.6640625,-34.66796875
24916.3520715,0.9625244140625,0.6083984375,0.368408203125,10.55908203125,55.2978515625,-34.66796875
24916.352183458,0.9625244140625,0.6083984375,0.368408203125,10.55908203125,55.2978515625,-5.31005859375
24916.366519708,0.9334716796875,0.6083984375,0.368408203125,10.55908203125,55.2978515625,-5.31005859375
24916.366610291,0.9334716796875,0.5164794921875,0.368408203125,10.55908203125,55.2978515625,-5.31005859375
24916.367394166,0.9334716796875,0.5164794921875,0.3577880859375,10.55908203125,55.2978515625,-5.31005859375
24916.384156291,0.9334716796875,0.5164794921875,0.3577880859375,10.55908203125,44.49462890625,-5.31005859375
24916.384200375,0.9334716796875,0.5164794921875,0.3577880859375,10.55908203125,44.49462890625,1.46484375
24916.399438083,0.8741455078125,0.5164794921875,0.3577880859375,10.55908203125,44.49462890625,1.46484375
24916.399480166,0.8741455078125,0.4654541015625,0.3577880859375,10.55908203125,44.49462890625,1.46484375
24916.399556708,0.8741455078125,0.4654541015625,0.34619140625,10.55908203125,44.49462890625,1.46484375
24916.415846708,0.8741455078125,0.4654541015625,0.34619140625,10.55908203125,26.30615234375,1.46484375
24916.415890208,0.8741455078125,0.4654541015625,0.34619140625,10.55908203125,26.30615234375,-2.25830078125
24916.442452375,0.852783203125,0.4654541015625,0.34619140625,10.55908203125,26.30615234375,-2.25830078125
24916.442610041,0.852783203125,0.4730224609375,0.34619140625,10.55908203125,26.30615234375,-2.25830078125
24916.449528166,0.852783203125,0.4730224609375,0.2999267578125,10.55908203125,26.30615234375,-2.25830078125
24916.449721875,0.852783203125,0.4730224609375,0.2999267578125,10.55908203125,16.41845703125,-2.25830078125
24916.457570916,0.817626953125,0.4730224609375,0.2999267578125,10.55908203125,16.41845703125,-2.25830078125
24916.457705958,0.817626953125,0.443359375,0.2999267578125,10.55908203125,16.41845703125,-2.25830078125
24916.457756333,0.817626953125,0.443359375,0.31494140625,10.55908203125,16.41845703125,-2.25830078125
24916.472261875,0.817626953125,0.443359375,0.31494140625,10.55908203125,20.751953125,-2.25830078125
24916.472368666,0.817626953125,0.443359375,0.31494140625,10.55908203125,20.751953125,0.42724609375
24916.503361666,0.8946533203125,0.443359375,0.31494140625,10.55908203125,20.751953125,0.42724609375
24916.503491666,0.8946533203125,0.56005859375,0.31494140625,10.55908203125,20.751953125,0.42724609375
24916.503525625,0.8946533203125,0.56005859375,0.2427978515625,10.55908203125,20.751953125,0.42724609375
24916.503583375,0.8946533203125,0.56005859375,0.2427978515625,-80.4443359375,20.751953125,0.42724609375
24916.532105416,0.888916015625,0.56005859375,0.2427978515625,-80.4443359375,20.751953125,0.42724609375
24916.546937208,0.888916015625,0.52294921875,0.2427978515625,-80.4443359375,20.751953125,0.42724609375
24916.547022458,0.888916015625,0.52294921875,0.2210693359375,-80.4443359375,20.751953125,0.42724609375
24916.548254458,0.888916015625,0.52294921875,0.2210693359375,-46.38671875,20.751953125,0.42724609375
24916.561657208,0.908203125,0.52294921875,0.2210693359375,-46.38671875,20.751953125,0.42724609375
24916.565625375,0.908203125,0.52294921875,0.2135009765625,-46.38671875,20.751953125,0.42724609375
24916.565723083,0.908203125,0.52294921875,0.2135009765625,13.671875,20.751953125,0.42724609375
24916.576597,0.9910888671875,0.52294921875,0.2135009765625,13.671875,20.751953125,0.42724609375
24916.582284833,0.9910888671875,0.41796875,0.2135009765625,13.671875,20.751953125,0.42724609375
24916.582352958,0.9910888671875,0.41796875,0.2049560546875,13.671875,20.751953125,0.42724609375
24916.592679083,0.9910888671875,0.41796875,0.2049560546875,13.671875,-5.2490234375,0.42724609375
24916.598926583,0.9910888671875,0.41796875,0.2049560546875,13.671875,-5.2490234375,-24.0478515625
24916.609064708,1.01953125,0.41796875,0.2049560546875,13.671875,-5.2490234375,-24.0478515625
24916.615604791,1.01953125,0.2138671875,0.2049560546875,13.671875,-5.2490234375,-24.0478515625
24916.61564525,1.01953125,0.2138671875,0.3197021484375,13.671875,-5.2490234375,-24.0478515625
24916.622151083,1.01953125,0.2138671875,0.3197021484375,13.671875,-3.0517578125,-24.0478515625
24916.622233833,1.01953125,0.2138671875,0.3197021484375,13.671875,-3.0517578125,-7.50732421875
24916.637099625,1.0618896484375,0.2138671875,0.3197021484375,13.671875,-3.0517578125,-7.50732421875
24916.651708833,1.0618896484375,0.16259765625,0.3197021484375,13.671875,-3.0517578125,-7.50732421875
24916.651789666,1.0618896484375,0.16259765625,0.362548828125,13.671875,-3.0517578125,-7.50732421875
24916.652690208,1.0618896484375,0.16259765625,0.362548828125,13.671875,-6.7138671875,-7.50732421875
24916.652774875,1.0618896484375,0.16259765625,0.362548828125,13.671875,-6.7138671875,-6.40869140625
24916.680939458,1.103515625,0.16259765625,0.362548828125,13.671875,-6.7138671875,-6.40869140625
24916.696669416,1.103515625,0.2010498046875,0.362548828125,13.671875,-6.7138671875,-6.40869140625
24916.696751625,1.103515625,0.2010498046875,0.49169921875,13.671875,-6.7138671875,-6.40869140625
24916.697456291,1.103515625,0.2010498046875,0.49169921875,13.671875,-17.9443359375,-6.40869140625
24916.715894333,1.1220703125,0.2010498046875,0.49169921875,13.671875,-17.9443359375,-6.40869140625
24916.715936958,1.1220703125,0.1927490234375,0.49169921875,13.671875,-17.9443359375,-6.40869140625
24916.716786541,1.1220703125,0.1927490234375,0.57421875,13.671875,-17.9443359375,-6.40869140625
24916.732516833,1.1220703125,0.1927490234375,0.57421875,13.671875,-17.9443359375,-25.390625
24916.742088208,1.1954345703125,0.1927490234375,0.57421875,13.671875,-17.9443359375,-25.390625
24916.742177666,1.1954345703125,0.15966796875,0.57421875,13.671875,-17.9443359375,-25.390625
24916.749073,1.1954345703125,0.15966796875,0.5706787109375,13.671875,-17.9443359375,-25.390625
24916.757919,1.1954345703125,0.15966796875,0.5706787109375,13.671875,-50.47607421875,-25.390625
24916.757998833,1.1954345703125,0.15966796875,0.5706787109375,13.671875,-50.47607421875,-33.75244140625
24916.786829291,1.2454833984375,0.15966796875,0.5706787109375,13.671875,-50.47607421875,-33.75244140625
24916.786925666,1.2454833984375,0.2386474609375,0.5706787109375,13.671875,-50.47607421875,-33.75244140625
24916.788698375,1.2454833984375,0.2386474609375,0.6005859375,13.671875,-50.47607421875,-33.75244140625
24916.78873875,1.2454833984375,0.2386474609375,0.6005859375,13.671875,-64.88037109375,-33.75244140625
24916.8202675,1.3388671875,0.2386474609375,0.6005859375,13.671875,-64.88037109375,-33.75244140625
24916.82040825,1.3388671875,0.3533935546875,0.6005859375,13.671875,-64.88037109375,-33.75244140625
24916.820489041,1.3388671875,0.3533935546875,0.625,13.671875,-64.88037109375,-33.75244140625
24916.820529708,1.3388671875,0.3533935546875,0.625,26.79443359375,-64.88037109375,-33.75244140625
24916.847228083,1.328369140625,0.3533935546875,0.625,26.79443359375,-64.88037109375,-33.75244140625
24916.847334625,1.328369140625,0.3553466796875,0.625,26.79443359375,-64.88037109375,-33.75244140625
24916.848559041,1.328369140625,0.3553466796875,0.5823974609375,26.79443359375,-64.88037109375,-33.75244140625
24916.848646375,1.328369140625,0.3553466796875,0.5823974609375,26.79443359375,-97.65625,-33.75244140625
24916.882850916,1.302490234375,0.3553466796875,0.5823974609375,26.79443359375,-97.65625,-33.75244140625
24916.882890583,1.302490234375,0.3309326171875,0.5823974609375,26.79443359375,-97.65625,-33.75244140625
24916.882921666,1.302490234375,0.3309326171875,0.59521484375,26.79443359375,-97.65625,-33.75244140625
24916.882952708,1.302490234375,0.3309326171875,0.59521484375,43.27392578125,-97.65625,-33.75244140625
24916.907072625,1.3079833984375,0.3309326171875,0.59521484375,43.27392578125,-97.65625,-33.75244140625
24916.907163875,1.3079833984375,0.3758544921875,0.59521484375,43.27392578125,-97.65625,-33.75244140625
24916.90837125,1.3079833984375,0.3758544921875,0.5833740234375,43.27392578125,-97.65625,-33.75244140625
24916.90846175,1.3079833984375,0.3758544921875,0.5833740234375,32.89794921875,-97.65625,-33.75244140625
24916.921566166,1.2144775390625,0.3758544921875,0.5833740234375,32.89794921875,-97.65625,-33.75244140625
24916.921656791,1.2144775390625,0.460693359375,0.5833740234375,32.89794921875,-97.65625,-33.75244140625
24916.922552208,1.2144775390625,0.460693359375,0.5849609375,32.89794921875,-97.65625,-33.75244140625
24916.937321333,1.2144775390625,0.460693359375,0.5849609375,32.89794921875,-120.42236328125,-33.75244140625
24916.951677541,1.2144775390625,0.460693359375,0.5849609375,32.89794921875,-120.42236328125,-12.451171875
24916.95176575,1.1341552734375,0.460693359375,0.5849609375,32.89794921875,-120.42236328125,-12.451171875
24916.953172166,1.1341552734375,0.40478515625,0.5849609375,32.89794921875,-120.42236328125,-12.451171875
24916.953254875,1.1341552734375,0.40478515625,0.512939453125,32.89794921875,-120.42236328125,-12.451171875
NEW_REP,,,,,,
24916.982737458,1.1341552734375,0.40478515625,0.512939453125,32.89794921875,-120.2392578125,-12.451171875
24916.982824458,1.1341552734375,0.40478515625,0.512939453125,32.89794921875,-120.2392578125,-3.11279296875
24916.982859166,1.002685546875,0.40478515625,0.512939453125,32.89794921875,-120.2392578125,-3.11279296875
24916.982891666,1.002685546875,0.27587890625,0.512939453125,32.89794921875,-120.2392578125,-3.11279296875
24916.999321625,1.002685546875,0.27587890625,0.596435546875,32.89794921875,-120.2392578125,-3.11279296875
24916.9993635,1.002685546875,0.27587890625,0.596435546875,32.89794921875,-122.1923828125,-3.11279296875
24916.999397333,1.002685546875,0.27587890625,0.596435546875,32.89794921875,-122.1923828125,-1.953125
24917.027184208,0.8785400390625,0.27587890625,0.596435546875,32.89794921875,-122.1923828125,-1.953125
24917.027275083,0.8785400390625,0.237548828125,0.596435546875,32.89794921875,-122.1923828125,-1.953125
24917.028149375,0.8785400390625,0.237548828125,0.614990234375,32.89794921875,-122.1923828125,-1.953125
24917.028222291,0.8785400390625,0.237548828125,0.614990234375,80.74951171875,-122.1923828125,-1.953125
24917.056990833,0.8448486328125,0.237548828125,0.614990234375,80.74951171875,-122.1923828125,-1.953125
24917.072180958,0.8448486328125,0.203125,0.614990234375,80.74951171875,-122.1923828125,-1.953125
24917.072277416,0.8448486328125,0.203125,0.611328125,80.74951171875,-122.1923828125,-1.953125
24917.072312041,0.8448486328125,0.203125,0.611328125,77.1484375,-122.1923828125,-1.953125
24917.0732045,0.830078125,0.203125,0.611328125,77.1484375,-122.1923828125,-1.953125
24917.101692833,0.830078125,0.203125,0.6854248046875,77.1484375,-122.1923828125,-1.953125
24917.101793,0.830078125,0.203125,0.6854248046875,78.67431640625,-122.1923828125,-1.953125
24917.102896,0.830078125,0.203125,0.6854248046875,78.67431640625,-116.5771484375,-1.953125
24917.116661291,0.7816162109375,0.203125,0.6854248046875,78.67431640625,-116.5771484375,-1.953125
24917.116744541,0.7816162109375,0.124267578125,0.6854248046875,78.67431640625,-116.5771484375,-1.953125
24917.117580416,0.7816162109375,0.124267578125,0.718994140625,78.67431640625,-116.5771484375,-1.953125
24917.132628958,0.7816162109375,0.124267578125,0.718994140625,78.67431640625,-116.5771484375,-24.0478515625
24917.149273625,0.6475830078125,0.124267578125,0.718994140625,78.67431640625,-116.5771484375,-24.0478515625
24917.1493165,0.6475830078125,0.088134765625,0.718994140625,78.67431640625,-116.5771484375,-24.0478515625
24917.165900125,0.6475830078125,0.088134765625,0.7706298828125,78.67431640625,-116.5771484375,-24.0478515625
24917.165941833,0.6475830078125,0.088134765625,0.7706298828125,78.67431640625,-116.5771484375,-24.0478515625
24917.165976583,0.6475830078125,0.088134765625,0.7706298828125,78.67431640625,-116.5771484375,-23.25439453125
24917.192084125,0.5303955078125,0.088134765625,0.7706298828125,78.67431640625,-116.5771484375,-23.25439453125
24917.192250375,0.5303955078125,0.01708984375,0.7706298828125,78.67431640625,-116.5771484375,-23.25439453125
24917.1995845,0.5303955078125,0.01708984375,0.681396484375,78.67431640625,-116.5771484375,-23.25439453125
24917.199625458,0.5303955078125,0.01708984375,0.681396484375,71.35009765625,-116.5771484375,-23.25439453125
24917.20672,0.44384765625,0.01708984375,0.681396484375,71.35009765625,-116.5771484375,-23.25439453125
24917.206848875,0.44384765625,-0.0028076171875,0.681396484375,71.35009765625,-116.5771484375,-23.25439453125
24917.207627208,0.44384765625,-0.0028076171875,0.67822265625,71.35009765625,-116.5771484375,-23.25439453125
24917.222696958,0.44384765625,-0.0028076171875,0.67822265625,71.35009765625,-116.88232421875,-23.25439453125
24917.2228005,0.44384765625,-0.0028076171875,0.67822265625,71.35009765625,-116.88232421875,-33.3251953125
24917.237790583,0.386962890625,-0.0028076171875,0.67822265625,71.35009765625,-116.88232421875,-33.3251953125
24917.237903208,0.386962890625,0.01513671875,0.67822265625,71.35009765625,-116.88232421875,-33.3251953125
24917.23795425,0.386962890625,0.01513671875,0.6920166015625,71.35009765625,-116.88232421875,-33.3251953125
24917.265585166,0.386962890625,0.01513671875,0.6920166015625,71.35009765625,-114.31884765625,-33.3251953125
24917.267756416,0.386962890625,0.01513671875,0.6920166015625,71.35009765625,-114.31884765625,-32.28759765625
24917.267849833,0.2879638671875,0.01513671875,0.6920166015625,71.35009765625,-114.31884765625,-32.28759765625
24917.282973083,0.2879638671875,0.01513671875,0.54248046875,71.35009765625,-114.31884765625,-32.28759765625
24917.283016458,0.2879638671875,0.01513671875,0.54248046875,39.0625,-114.31884765625,-32.28759765625
24917.283400666,0.2879638671875,0.01513671875,0.54248046875,39.0625,-118.5302734375,-32.28759765625
24917.2995,0.169677734375,0.01513671875,0.54248046875,39.0625,-118.5302734375,-32.28759765625
24917.31586925,0.169677734375,-0.0548095703125,0.54248046875,39.0625,-118.5302734375,-32.28759765625
24917.332749541,0.169677734375,-0.0548095703125,0.46923828125,39.0625,-118.5302734375,-32.28759765625
24917.3327945,0.169677734375,-0.0548095703125,0.46923828125,39.0625,-120.42236328125,-32.28759765625
24917.332829541,0.169677734375,-0.0548095703125,0.46923828125,39.0625,-120.42236328125,-24.10888671875
24917.332862083,0.0238037109375,-0.0548095703125,0.46923828125,39.0625,-120.42236328125,-24.10888671875
24917.34214825,0.0238037109375,-0.0548095703125,0.46923828125,11.16943359375,-120.42236328125,-24.10888671875
24917.342242666,0.0238037109375,-0.0548095703125,0.46923828125,11.16943359375,-117.24853515625,-24.10888671875
24917.349362625,0.0238037109375,-0.0548095703125,0.46923828125,11.16943359375,-117.24853515625,-18.1884765625
24917.371648833,-0.0850830078125,-0.0548095703125,0.46923828125,11.16943359375,-117.24853515625,-18.1884765625
24917.371742541,-0.0850830078125,0.0555419921875,0.46923828125,11.16943359375,-117.24853515625,-18.1884765625
24917.3724645,-0.0850830078125,0.0555419921875,0.2784423828125,11.16943359375,-117.24853515625,-18.1884765625
24917.431859125,-0.0850830078125,0.0555419921875,0.2784423828125,11.16943359375,-102.47802734375,-18.1884765625
24917.431958083,-0.0850830078125,0.0555419921875,0.2784423828125,11.16943359375,-102.47802734375,-13.00048828125
24917.433462583,-0.2354736328125,0.0555419921875,0.2784423828125,11.16943359375,-102.47802734375,-13.00048828125
24917.433495958,-0.2354736328125,-0.2584228515625,0.2784423828125,11.16943359375,-102.47802734375,-13.00048828125
24917.461844708,-0.2354736328125,-0.2584228515625,0.2784423828125,11.16943359375,-67.32177734375,-13.00048828125
24917.461885333,-0.2354736328125,-0.2584228515625,0.2784423828125,11.16943359375,-67.32177734375,-5.7373046875
24917.463716583,-0.25,-0.2584228515625,0.2784423828125,11.16943359375,-67.32177734375,-5.7373046875
24917.463787625,-0.25,-0.2567138671875,0.2784423828125,11.16943359375,-67.32177734375,-5.7373046875
24917.48231025,-0.25,-0.2567138671875,0.2784423828125,11.16943359375,-12.939453125,-5.7373046875
24917.482347166,-0.25,-0.2567138671875,0.2784423828125,11.16943359375,-12.939453125,13.427734375
24917.506785291,-0.1824951171875,-0.2567138671875,0.2784423828125,11.16943359375,-12.939453125,13.427734375
24917.506875,-0.1824951171875,-0.2130126953125,0.2784423828125,11.16943359375,-12.939453125,13.427734375
24917.508022708,-0.1824951171875,-0.2130126953125,0.2205810546875,11.16943359375,-12.939453125,13.427734375
24917.508087458,-0.1824951171875,-0.2130126953125,0.2205810546875,-56.5185546875,-12.939453125,13.427734375
24917.55218375,-0.1756591796875,-0.2130126953125,0.2205810546875,-56.5185546875,-12.939453125,13.427734375
24917.552285375,-0.1756591796875,-0.1685791015625,0.2205810546875,-56.5185546875,-12.939453125,13.427734375
24917.552341916,-0.1756591796875,-0.1685791015625,0.280029296875,-56.5185546875,-12.939453125,13.427734375
24917.553025125,-0.1756591796875,-0.1685791015625,0.280029296875,-62.98828125,-12.939453125,13.427734375
24917.597167916,-0.0821533203125,-0.1685791015625,0.280029296875,-62.98828125,-12.939453125,13.427734375
24917.59725875,-0.0821533203125,-0.1370849609375,0.280029296875,-62.98828125,-12.939453125,13.427734375
24917.600219541,-0.0821533203125,-0.1370849609375,0.37109375,-62.98828125,-12.939453125,13.427734375
24917.600258583,-0.0821533203125,-0.1370849609375,0.37109375,-56.57958984375,-12.939453125,13.427734375
24917.627027083,0.064697265625,-0.1370849609375,0.37109375,-56.57958984375,-12.939453125,13.427734375
24917.6324195,0.064697265625,-0.0828857421875,0.37109375,-56.57958984375,-12.939453125,13.427734375
24917.632567125,0.064697265625,-0.0828857421875,0.4908447265625,-56.57958984375,-12.939453125,13.427734375
24917.641946208,0.064697265625,-0.0828857421875,0.4908447265625,-56.57958984375,73.54736328125,13.427734375
24917.641978166,0.064697265625,-0.0828857421875,0.4908447265625,-56.57958984375,73.54736328125,29.96826171875
24917.687496,0.1927490234375,-0.0828857421875,0.4908447265625,-56.57958984375,73.54736328125,29.96826171875
24917.687854083,0.1927490234375,-0.0738525390625,0.4908447265625,-56.57958984375,73.54736328125,29.96826171875
24917.688618125,0.1927490234375,-0.0738525390625,0.5865478515625,-56.57958984375,73.54736328125,29.96826171875
24917.688824541,0.1927490234375,-0.0738525390625,0.5865478515625,-44.7998046875,73.54736328125,29.96826171875
24917.701918833,0.3104248046875,-0.0738525390625,0.5865478515625,-44.7998046875,73.54736328125,29.96826171875
24917.702140875,0.3104248046875,-0.083740234375,0.5865478515625,-44.7998046875,73.54736328125,29.96826171875
24917.70277675,0.3104248046875,-0.083740234375,0.651123046875,-44.7998046875,73.54736328125,29.96826171875
24917.717164,0.3104248046875,-0.083740234375,0.651123046875,-44.7998046875,98.08349609375,29.96826171875
24917.717238791,0.3104248046875,-0.083740234375,0.651123046875,-44.7998046875,98.08349609375,25.08544921875
24917.746765458,0.3409423828125,-0.083740234375,0.651123046875,-44.7998046875,98.08349609375,25.08544921875
24917.748026458,0.3409423828125,0.1552734375,0.651123046875,-44.7998046875,98.08349609375,25.08544921875
24917.748287916,0.3409423828125,0.1552734375,0.556884765625,-44.7998046875,98.08349609375,25.08544921875
24917.750016708,0.3409423828125,0.1552734375,0.556884765625,-44.7998046875,88.9892578125,25.08544921875
24917.777252125,0.44970703125,0.1552734375,0.556884765625,-44.7998046875,88.9892578125,25.08544921875
24917.777526666,0.44970703125,0.5216064453125,0.556884765625,-44.7998046875,88.9892578125,25.08544921875
24917.778075833,0.44970703125,0.5216064453125,0.7879638671875,-44.7998046875,88.9892578125,25.08544921875
24917.778291125,0.44970703125,0.5216064453125,0.7879638671875,-44.7998046875,103.33251953125,25.08544921875
24917.806505083,0.470703125,0.5216064453125,0.7879638671875,-44.7998046875,103.33251953125,25.08544921875
24917.821883791,0.470703125,0.3887939453125,0.7879638671875,-44.7998046875,103.33251953125,25.08544921875
24917.821922333,0.470703125,0.3887939453125,0.8011474609375,-44.7998046875,103.33251953125,25.08544921875
24917.823237916,0.470703125,0.3887939453125,0.8011474609375,-19.47021484375,103.33251953125,25.08544921875
24917.823318083,0.60400390625,0.3887939453125,0.8011474609375,-19.47021484375,103.33251953125,25.08544921875
24917.836996,0.60400390625,0.3887939453125,0.6729736328125,-19.47021484375,103.33251953125,25.08544921875
24917.837080125,0.60400390625,0.3887939453125,0.6729736328125,-36.19384765625,103.33251953125,25.08544921875
24917.838926208,0.60400390625,0.3887939453125,0.6729736328125,-36.19384765625,126.52587890625,25.08544921875
24917.866670041,0.663818359375,0.3887939453125,0.6729736328125,-36.19384765625,126.52587890625,25.08544921875
24917.866759416,0.663818359375,0.2535400390625,0.6729736328125,-36.19384765625,126.52587890625,25.08544921875
24917.881906333,0.663818359375,0.2535400390625,0.6451416015625,-36.19384765625,126.52587890625,25.08544921875
24917.881942708,0.663818359375,0.2535400390625,0.6451416015625,-36.19384765625,120.361328125,25.08544921875
24917.883728833,0.752685546875,0.2535400390625,0.6451416015625,-36.19384765625,120.361328125,25.08544921875
24917.884428291,0.752685546875,0.4080810546875,0.6451416015625,-36.19384765625,120.361328125,25.08544921875
24917.89918225,0.752685546875,0.4080810546875,0.6451416015625,-36.19384765625,134.27734375,25.08544921875
24917.899218125,0.752685546875,0.4080810546875,0.6451416015625,-36.19384765625,134.27734375,-1.89208984375
24917.927247083,0.9222412109375,0.4080810546875,0.6451416015625,-36.19384765625,134.27734375,-1.89208984375
24917.927463583,0.9222412109375,0.5159912109375,0.6451416015625,-36.19384765625,134.27734375,-1.89208984375
24917.92859825,0.9222412109375,0.5159912109375,0.58251953125,-36.19384765625,134.27734375,-1.89208984375
24917.931458541,0.9222412109375,0.5159912109375,0.58251953125,-82.33642578125,134.27734375,-1.89208984375
24917.971408916,1.002197265625,0.5159912109375,0.58251953125,-82.33642578125,134.27734375,-1.89208984375
24917.975234458,1.002197265625,0.4693603515625,0.58251953125,-82.33642578125,134.27734375,-1.89208984375
24917.975310041,1.002197265625,0.4693603515625,0.6729736328125,-82.33642578125,134.27734375,-1.89208984375
24917.9753445,1.002197265625,0.4693603515625,0.6729736328125,-82.33642578125,151.42822265625,-1.89208984375
24917.999075958,1.1893310546875,0.4693603515625,0.6729736328125,-82.33642578125,151.42822265625,-1.89208984375
24917.999112375,1.1893310546875,0.4722900390625,0.6729736328125,-82.33642578125,151.42822265625,-1.89208984375
24917.999143625,1.1893310546875,0.4722900390625,0.8902587890625,-82.33642578125,151.42822265625,-1.89208984375
24918.001909833,1.1893310546875,0.4722900390625,0.8902587890625,-82.33642578125,165.1611328125,-1.89208984375
24918.001941958,1.1893310546875,0.4722900390625,0.8902587890625,-82.33642578125,165.1611328125,-18.37158203125
24918.016923625,1.2900390625,0.4722900390625,0.8902587890625,-82.33642578125,165.1611328125,-18.37158203125
24918.032700166,1.2900390625,0.3614501953125,0.8902587890625,-82.33642578125,165.1611328125,-18.37158203125
24918.032739541,1.2900390625,0.3614501953125,0.6690673828125,-82.33642578125,165.1611328125,-18.37158203125
24918.032772083,1.2900390625,0.3614501953125,0.6690673828125,-82.33642578125,145.56884765625,-18.37158203125
24918.03335875,1.2900390625,0.3614501953125,0.6690673828125,-82.33642578125,145.56884765625,-15.9912109375
24918.049583875,1.2490234375,0.3614501953125,0.6690673828125,-82.33642578125,145.56884765625,-15.9912109375
24918.049623416,1.2490234375,0.310546875,0.6690673828125,-82.33642578125,145.56884765625,-15.9912109375
24918.049655125,1.2490234375,0.310546875,0.7039794921875,-82.33642578125,145.56884765625,-15.9912109375
24918.065740041,1.2490234375,0.310546875,0.7039794921875,-82.33642578125,127.44140625,-15.9912109375
24918.065779291,1.2490234375,0.310546875,0.7039794921875,-82.33642578125,127.44140625,-11.5966796875
24918.076619791,1.3565673828125,0.310546875,0.7039794921875,-82.33642578125,127.44140625,-11.5966796875
24918.08231625,1.3565673828125,0.3839111328125,0.7039794921875,-82.33642578125,127.44140625,-11.5966796875
24918.082383708,1.3565673828125,0.3839111328125,0.6829833984375,-82.33642578125,127.44140625,-11.5966796875
24918.092095458,1.3565673828125,0.3839111328125,0.6829833984375,-82.33642578125,112.60986328125,-11.5966796875
24918.092175166,1.3565673828125,0.3839111328125,0.6829833984375,-82.33642578125,112.60986328125,-1.28173828125
24918.106513,1.25390625,0.3839111328125,0.6829833984375,-82.33642578125,112.60986328125,-1.28173828125
24918.106577125,1.25390625,0.346923828125,0.6829833984375,-82.33642578125,112.60986328125,-1.28173828125
24918.107566625,1.25390625,0.346923828125,0.62109375,-82.33642578125,112.60986328125,-1.28173828125
24918.121880291,1.25390625,0.346923828125,0.62109375,-82.33642578125,97.0458984375,-1.28173828125
24918.121954291,1.25390625,0.346923828125,0.62109375,-82.33642578125,97.0458984375,4.33349609375
24918.15184775,1.1925048828125,0.346923828125,0.62109375,-82.33642578125,97.0458984375,4.33349609375
24918.151885833,1.1925048828125,0.2646484375,0.62109375,-82.33642578125,97.0458984375,4.33349609375
24918.153048791,1.1925048828125,0.2646484375,0.5377197265625,-82.33642578125,97.0458984375,4.33349609375
24918.153164083,1.1925048828125,0.2646484375,0.5377197265625,-82.33642578125,82.33642578125,4.33349609375
24918.167001333,1.2100830078125,0.2646484375,0.5377197265625,-82.33642578125,82.33642578125,4.33349609375
24918.182660041,1.2100830078125,0.2589111328125,0.5377197265625,-82.33642578125,82.33642578125,4.33349609375
24918.182698,1.2100830078125,0.2589111328125,0.5045166015625,-82.33642578125,82.33642578125,4.33349609375
24918.182730458,1.2100830078125,0.2589111328125,0.5045166015625,-82.33642578125,70.61767578125,4.33349609375
24918.183170333,1.2100830078125,0.2589111328125,0.5045166015625,-82.33642578125,70.61767578125,13.3056640625
24918.226867208,1.0802001953125,0.2589111328125,0.5045166015625,-82.33642578125,70.61767578125,13.3056640625
24918.226988541,1.0802001953125,0.2430419921875,0.5045166015625,-82.33642578125,70.61767578125,13.3056640625
24918.22798925,1.0802001953125,0.2430419921875,0.3919677734375,-82.33642578125,70.61767578125,13.3056640625
24918.228080833,1.0802001953125,0.2430419921875,0.3919677734375,-38.0859375,70.61767578125,13.3056640625
24918.249296208,1.0128173828125,0.2430419921875,0.3919677734375,-38.0859375,70.61767578125,13.3056640625
24918.249337708,1.0128173828125,0.353759765625,0.3919677734375,-38.0859375,70.61767578125,13.3056640625
24918.249370958,1.0128173828125,0.353759765625,0.388427734375,-38.0859375,70.61767578125,13.3056640625
24918.256853666,1.0128173828125,0.353759765625,0.388427734375,-38.0859375,24.23095703125,13.3056640625
24918.272564625,1.0128173828125,0.353759765625,0.388427734375,-38.0859375,24.23095703125,11.23046875
24918.272605208,1.025390625,0.353759765625,0.388427734375,-38.0859375,24.23095703125,11.23046875
24918.272656291,1.025390625,0.416015625,0.388427734375,-38.0859375,24.23095703125,11.23046875
24918.273796583,1.025390625,0.416015625,0.290283203125,-38.0859375,24.23095703125,11.23046875
24918.286925791,1.025390625,0.416015625,0.290283203125,-38.0859375,22.64404296875,11.23046875
24918.287007125,1.025390625,0.416015625,0.290283203125,-38.0859375,22.64404296875,10.92529296875
24918.317274166,0.985595703125,0.416015625,0.290283203125,-38.0859375,22.64404296875,10.92529296875
24918.331856041,0.985595703125,0.33837890625,0.290283203125,-38.0859375,22.64404296875,10.92529296875
24918.331967791,0.985595703125,0.33837890625,0.200439453125,-38.0859375,22.64404296875,10.92529296875
24918.332771833,0.985595703125,0.33837890625,0.200439453125,-38.0859375,21.30126953125,10.92529296875
24918.332880083,0.985595703125,0.33837890625,0.200439453125,-38.0859375,21.30126953125,12.20703125
24918.362588041,0.9573974609375,0.33837890625,0.200439453125,-38.0859375,21.30126953125,12.20703125
24918.362701083,0.9573974609375,0.4559326171875,0.200439453125,-38.0859375,21.30126953125,12.20703125
24918.364417458,0.9573974609375,0.4559326171875,0.2093505859375,-38.0859375,21.30126953125,12.20703125
24918.364605666,0.9573974609375,0.4559326171875,0.2093505859375,8.23974609375,21.30126953125,12.20703125
24918.383919375,0.9383544921875,0.4559326171875,0.2093505859375,8.23974609375,21.30126953125,12.20703125
24918.383996333,0.9383544921875,0.2042236328125,0.2093505859375,8.23974609375,21.30126953125,12.20703125
24918.384059166,0.9383544921875,0.2042236328125,0.171142578125,8.23974609375,21.30126953125,12.20703125
24918.392406958,0.9383544921875,0.2042236328125,0.171142578125,8.23974609375,-4.150390625,12.20703125
24918.392572458,0.9383544921875,0.2042236328125,0.171142578125,8.23974609375,-4.150390625,2.685546875
NEW_REP,,,,,,
24918.421862333,0.9388427734375,0.2042236328125,0.171142578125,8.23974609375,-4.150390625,2.685546875
24918.422032208,0.9388427734375,0.294921875,0.171142578125,8.23974609375,-4.150390625,2.685546875
24918.422794583,0.9388427734375,0.294921875,0.1666259765625,8.23974609375,-4.150390625,2.685546875
24918.422950875,0.9388427734375,0.294921875,0.1666259765625,-8.48388671875,-4.150390625,2.685546875
24918.467638166,0.9888916015625,0.294921875,0.1666259765625,-8.48388671875,-4.150390625,2.685546875
24918.469615666,0.9888916015625,0.351318359375,0.1666259765625,-8.48388671875,-4.150390625,2.685546875
24918.469874291,0.9888916015625,0.351318359375,0.208984375,-8.48388671875,-4.150390625,2.685546875
24918.470005833,0.9888916015625,0.351318359375,0.208984375,-4.5166015625,-4.150390625,2.685546875
24918.500773708,1.0118408203125,0.351318359375,0.208984375,-4.5166015625,-4.150390625,2.685546875
24918.500843875,1.0118408203125,0.3720703125,0.208984375,-4.5166015625,-4.150390625,2.685546875
24918.5009035,1.0118408203125,0.3720703125,0.2802734375,-4.5166015625,-4.150390625,2.685546875
24918.527400208,1.0118408203125,0.3720703125,0.2802734375,-4.5166015625,-11.41357421875,2.685546875
24918.52757325,1.0118408203125,0.3720703125,0.2802734375,-4.5166015625,-11.41357421875,4.94384765625
24918.542007125,1.1090087890625,0.3720703125,0.2802734375,-4.5166015625,-11.41357421875,4.94384765625
24918.5421725,1.1090087890625,0.2452392578125,0.2802734375,-4.5166015625,-11.41357421875,4.94384765625
24918.543194625,1.1090087890625,0.2452392578125,0.4912109375,-4.5166015625,-11.41357421875,4.94384765625
24918.573257333,1.1610107421875,0.2452392578125,0.4912109375,-4.5166015625,-11.41357421875,4.94384765625
24918.573547125,1.1610107421875,0.3271484375,0.4912109375,-4.5166015625,-11.41357421875,4.94384765625
24918.573619375,1.1610107421875,0.3271484375,0.52392578125,-4.5166015625,-11.41357421875,4.94384765625
24918.573756083,1.1610107421875,0.3271484375,0.52392578125,8.23974609375,-11.41357421875,4.94384765625
24918.600950875,1.2105712890625,0.3271484375,0.52392578125,8.23974609375,-11.41357421875,4.94384765625
24918.601029416,1.2105712890625,0.3367919921875,0.52392578125,8.23974609375,-11.41357421875,4.94384765625
24918.601099041,1.2105712890625,0.3367919921875,0.555419921875,8.23974609375,-11.41357421875,4.94384765625
24918.602158875,1.2105712890625,0.3367919921875,0.555419921875,8.23974609375,-61.09619140625,4.94384765625
24918.602313708,1.2105712890625,0.3367919921875,0.555419921875,8.23974609375,-61.09619140625,-3.2958984375
24918.617825833,1.23779296875,0.3367919921875,0.555419921875,8.23974609375,-61.09619140625,-3.2958984375
24918.617890708,1.23779296875,0.3529052734375,0.555419921875,8.23974609375,-61.09619140625,-3.2958984375
24918.618016916,1.23779296875,0.3529052734375,0.5947265625,8.23974609375,-61.09619140625,-3.2958984375
24918.662620958,1.23779296875,0.3529052734375,0.5947265625,8.23974609375,-76.7822265625,-3.2958984375
24918.664205583,1.23779296875,0.3529052734375,0.5947265625,8.23974609375,-76.7822265625,-5.06591796875
24918.684166083,1.2685546875,0.3529052734375,0.5947265625,8.23974609375,-76.7822265625,-5.06591796875
24918.684235833,1.2685546875,0.2950439453125,0.5947265625,8.23974609375,-76.7822265625,-5.06591796875
24918.684296416,1.2685546875,0.2950439453125,0.5947265625,8.23974609375,-88.43994140625,-5.06591796875
24918.684355583,1.2685546875,0.2950439453125,0.5947265625,8.23974609375,-88.43994140625,-7.2021484375
24918.692077125,1.21728515625,0.2950439453125,0.5947265625,8.23974609375,-88.43994140625,-7.2021484375
24918.692316375,1.21728515625,0.3277587890625,0.5947265625,8.23974609375,-88.43994140625,-7.2021484375
24918.692435333,1.21728515625,0.3277587890625,0.564697265625,8.23974609375,-88.43994140625,-7.2021484375
24918.707716958,1.21728515625,0.3277587890625,0.564697265625,8.23974609375,-108.21533203125,-7.2021484375
24918.707889458,1.21728515625,0.3277587890625,0.564697265625,8.23974609375,-108.21533203125,-10.25390625
24918.737411375,1.1817626953125,0.3277587890625,0.564697265625,8.23974609375,-108.21533203125,-10.25390625
24918.752673541,1.1817626953125,0.4732666015625,0.564697265625,8.23974609375,-108.21533203125,-10.25390625
24918.752763416,1.1817626953125,0.4732666015625,0.58544921875,8.23974609375,-108.21533203125,-10.25390625
24918.75284,1.1817626953125,0.4732666015625,0.58544921875,44.61669921875,-108.21533203125,-10.25390625
24918.753430916,1.1444091796875,0.4732666015625,0.58544921875,44.61669921875,-108.21533203125,-10.25390625
24918.784150958,1.1444091796875,0.4732666015625,0.5963134765625,44.61669921875,-108.21533203125,-10.25390625
24918.784227833,1.1444091796875,0.4732666015625,0.5963134765625,68.05419921875,-108.21533203125,-10.25390625
24918.784290666,1.1444091796875,0.4732666015625,0.5963134765625,68.05419921875,-122.98583984375,-10.25390625
24918.784350166,1.1318359375,0.4732666015625,0.5963134765625,68.05419921875,-122.98583984375,-10.25390625
24918.784409791,1.1318359375,0.3564453125,0.5963134765625,68.05419921875,-122.98583984375,-10.25390625
24918.784467458,1.1318359375,0.3564453125,0.57763671875,68.05419921875,-122.98583984375,-10.25390625
24918.8007215,1.1318359375,0.3564453125,0.57763671875,68.05419921875,-125.3662109375,-10.25390625
24918.817052541,1.1318359375,0.3564453125,0.57763671875,68.05419921875,-125.3662109375,-19.287109375
24918.826683625,1.10986328125,0.3564453125,0.57763671875,68.05419921875,-125.3662109375,-19.287109375
24918.842034958,1.10986328125,0.472900390625,0.57763671875,68.05419921875,-125.3662109375,-19.287109375
24918.842177833,1.10986328125,0.472900390625,0.6103515625,68.05419921875,-125.3662109375,-19.287109375
24918.84287125,1.10986328125,0.472900390625,0.6103515625,68.05419921875,-137.02392578125,-19.287109375
24918.843011916,1.10986328125,0.472900390625,0.6103515625,68.05419921875,-137.02392578125,-12.02392578125
24918.856854583,0.977294921875,0.472900390625,0.6103515625,68.05419921875,-137.02392578125,-12.02392578125
24918.857010791,0.977294921875,0.4010009765625,0.6103515625,68.05419921875,-137.02392578125,-12.02392578125
24918.858087291,0.977294921875,0.4010009765625,0.60791015625,68.05419921875,-137.02392578125,-12.02392578125
24918.871963583,0.977294921875,0.4010009765625,0.60791015625,68.05419921875,-139.34326171875,-12.02392578125
24918.87209225,0.977294921875,0.4010009765625,0.60791015625,68.05419921875,-139.34326171875,-10.55908203125
24918.886735083,0.853759765625,0.4010009765625,0.60791015625,68.05419921875,-139.34326171875,-10.55908203125
24918.886877625,0.853759765625,0.2779541015625,0.60791015625,68.05419921875,-139.34326171875,-10.55908203125
24918.888055791,0.853759765625,0.2779541015625,0.62548828125,68.05419921875,-139.34326171875,-10.55908203125
24918.917242041,0.853759765625,0.2779541015625,0.62548828125,68.05419921875,-134.6435546875,-10.55908203125
24918.931984708,0.853759765625,0.2779541015625,0.62548828125,68.05419921875,-134.6435546875,-10.25390625
24918.932146625,0.7967529296875,0.2779541015625,0.62548828125,68.05419921875,-134.6435546875,-10.25390625
24918.933117125,0.7967529296875,0.3232421875,0.62548828125,68.05419921875,-134.6435546875,-10.25390625
24918.933249375,0.7967529296875,0.3232421875,0.62548828125,68.05419921875,-132.26318359375,-10.25390625
24918.9778075,0.697265625,0.3232421875,0.62548828125,68.05419921875,-132.26318359375,-10.25390625
24918.977984958,0.697265625,0.311279296875,0.62548828125,68.05419921875,-132.26318359375,-10.25390625
24918.978046791,0.697265625,0.311279296875,0.780029296875,68.05419921875,-132.26318359375,-10.25390625
24918.979145958,0.697265625,0.311279296875,0.780029296875,83.43505859375,-132.26318359375,-10.25390625
24918.991734375,0.62646484375,0.311279296875,0.780029296875,83.43505859375,-132.26318359375,-10.25390625
24918.9918745,0.62646484375,0.141357421875,0.780029296875,83.43505859375,-132.26318359375,-10.25390625
24919.022849041,0.62646484375,0.141357421875,0.773193359375,83.43505859375,-132.26318359375,-10.25390625
24919.023094875,0.62646484375,0.141357421875,0.773193359375,83.43505859375,-131.2255859375,-10.25390625
24919.034129708,0.62646484375,0.141357421875,0.773193359375,83.43505859375,-131.2255859375,-13.3056640625
24919.034347416,0.5059814453125,0.141357421875,0.773193359375,83.43505859375,-131.2255859375,-13.3056640625
24919.037391458,0.5059814453125,0.141357421875,0.81103515625,83.43505859375,-131.2255859375,-13.3056640625
24919.037589875,0.5059814453125,0.141357421875,0.81103515625,49.49951171875,-131.2255859375,-13.3056640625
24919.037661,0.5059814453125,0.141357421875,0.81103515625,49.49951171875,-135.7421875,-13.3056640625
24919.082148333,0.425048828125,0.141357421875,0.81103515625,49.49951171875,-135.7421875,-13.3056640625
24919.082353666,0.425048828125,0.1322021484375,0.81103515625,49.49951171875,-135.7421875,-13.3056640625
24919.083008166,0.425048828125,0.1322021484375,0.758056640625,49.49951171875,-135.7421875,-13.3056640625
24919.083179416,0.425048828125,0.1322021484375,0.758056640625,49.49951171875,-139.58740234375,-13.3056640625
24919.100836958,0.2783203125,0.1322021484375,0.758056640625,49.49951171875,-139.58740234375,-13.3056640625
24919.1009065,0.2783203125,0.1248779296875,0.758056640625,49.49951171875,-139.58740234375,-13.3056640625
24919.100972041,0.2783203125,0.1248779296875,0.619873046875,49.49951171875,-139.58740234375,-13.3056640625
24919.127307541,0.2783203125,0.1248779296875,0.619873046875,49.49951171875,-137.6953125,-13.3056640625
24919.127488458,0.2783203125,0.1248779296875,0.619873046875,49.49951171875,-137.6953125,-17.7001953125
24919.134197875,0.093505859375,0.1248779296875,0.619873046875,49.49951171875,-137.6953125,-17.7001953125
24919.134262958,0.093505859375,0.0784912109375,0.619873046875,49.49951171875,-137.6953125,-17.7001953125
24919.142387291,0.093505859375,0.0784912109375,0.619873046875,49.49951171875,-120.91064453125,-17.7001953125
24919.142522583,0.093505859375,0.0784912109375,0.619873046875,49.49951171875,-120.91064453125,-17.08984375
24919.172662041,-0.039794921875,0.0784912109375,0.619873046875,49.49951171875,-120.91064453125,-17.08984375
24919.176387875,-0.039794921875,-0.0003662109375,0.619873046875,49.49951171875,-120.91064453125,-17.08984375
24919.176632041,-0.039794921875,-0.0003662109375,0.420654296875,49.49951171875,-120.91064453125,-17.08984375
24919.176721458,-0.039794921875,-0.0003662109375,0.420654296875,53.40576171875,-120.91064453125,-17.08984375
24919.202250166,-0.1282958984375,-0.0003662109375,0.420654296875,53.40576171875,-120.91064453125,-17.08984375
24919.204541541,-0.1282958984375,-0.0142822265625,0.420654296875,53.40576171875,-120.91064453125,-17.08984375
24919.204751041,-0.1282958984375,-0.0142822265625,0.3062744140625,53.40576171875,-120.91064453125,-17.08984375
24919.204845041,-0.1282958984375,-0.0142822265625,0.3062744140625,48.583984375,-120.91064453125,-17.08984375
24919.217875708,-0.21826171875,-0.0142822265625,0.3062744140625,48.583984375,-120.91064453125,-17.08984375
24919.217942958,-0.21826171875,-0.0146484375,0.3062744140625,48.583984375,-120.91064453125,-17.08984375
24919.218072291,-0.21826171875,-0.0146484375,0.23681640625,48.583984375,-120.91064453125,-17.08984375
24919.234197541,-0.21826171875,-0.0146484375,0.23681640625,48.583984375,-74.40185546875,-17.08984375
24919.234277791,-0.21826171875,-0.0146484375,0.23681640625,48.583984375,-74.40185546875,-1.52587890625
24919.306495041,-0.275634765625,-0.0146484375,0.23681640625,48.583984375,-74.40185546875,-1.52587890625
24919.312078958,-0.275634765625,-0.1280517578125,0.23681640625,48.583984375,-74.40185546875,-1.52587890625
24919.31218475,-0.275634765625,-0.1280517578125,0.2777099609375,48.583984375,-74.40185546875,-1.52587890625
24919.312276625,-0.275634765625,-0.1280517578125,0.2777099609375,58.59375,-74.40185546875,-1.52587890625
24919.337633791,-0.297119140625,-0.1280517578125,0.2777099609375,58.59375,-74.40185546875,-1.52587890625
24919.352194291,-0.297119140625,-0.1822509765625,0.2777099609375,58.59375,-74.40185546875,-1.52587890625
24919.352401708,-0.297119140625,-0.1822509765625,0.2564697265625,58.59375,-74.40185546875,-1.52587890625
24919.35687025,-0.297119140625,-0.1822509765625,0.2564697265625,58.59375,-33.447265625,-1.52587890625
24919.356987333,-0.3045654296875,-0.1822509765625,0.2564697265625,58.59375,-33.447265625,-1.52587890625
24919.367381333,-0.3045654296875,-0.1822509765625,0.269775390625,58.59375,-33.447265625,-1.52587890625
24919.372482,-0.3045654296875,-0.1822509765625,0.269775390625,-26.7333984375,-33.447265625,-1.52587890625
24919.372748,-0.3045654296875,-0.1822509765625,0.269775390625,-26.7333984375,7.75146484375,-1.52587890625
24919.4010945,-0.248046875,-0.1822509765625,0.269775390625,-26.7333984375,7.75146484375,-1.52587890625
24919.40117475,-0.248046875,-0.1937255859375,0.269775390625,-26.7333984375,7.75146484375,-1.52587890625
24919.401245,-0.248046875,-0.1937255859375,0.3404541015625,-26.7333984375,7.75146484375,-1.52587890625
24919.401315708,-0.248046875,-0.1937255859375,0.3404541015625,-37.17041015625,7.75146484375,-1.52587890625
24919.426912375,-0.175048828125,-0.1937255859375,0.3404541015625,-37.17041015625,7.75146484375,-1.52587890625
24919.42708225,-0.175048828125,-0.1778564453125,0.3404541015625,-37.17041015625,7.75146484375,-1.52587890625
24919.441971541,-0.175048828125,-0.1778564453125,0.419921875,-37.17041015625,7.75146484375,-1.52587890625
24919.442153583,-0.175048828125,-0.1778564453125,0.419921875,-36.56005859375,7.75146484375,-1.52587890625
24919.443323416,-0.110107421875,-0.1778564453125,0.419921875,-36.56005859375,7.75146484375,-1.52587890625
24919.44345575,-0.110107421875,-0.1583251953125,0.419921875,-36.56005859375,7.75146484375,-1.52587890625
24919.471747541,-0.110107421875,-0.1583251953125,0.419921875,-36.56005859375,64.75830078125,-1.52587890625
24919.487419375,-0.110107421875,-0.1583251953125,0.419921875,-36.56005859375,64.75830078125,20.93505859375
24919.48756925,-0.0211181640625,-0.1583251953125,0.419921875,-36.56005859375,64.75830078125,20.93505859375
24919.487998625,-0.0211181640625,-0.13916015625,0.419921875,-36.56005859375,64.75830078125,20.93505859375
24919.488166291,-0.0211181640625,-0.13916015625,0.5040283203125,-36.56005859375,64.75830078125,20.93505859375
24919.517372375,0.0595703125,-0.13916015625,0.5040283203125,-36.56005859375,64.75830078125,20.93505859375
24919.518889375,0.0595703125,-0.1121826171875,0.5040283203125,-36.56005859375,64.75830078125,20.93505859375
24919.51908275,0.0595703125,-0.1121826171875,0.541259765625,-36.56005859375,64.75830078125,20.93505859375
24919.519193666,0.0595703125,-0.1121826171875,0.541259765625,-67.87109375,64.75830078125,20.93505859375
24919.534257208,0.1126708984375,-0.1121826171875,0.541259765625,-67.87109375,64.75830078125,20.93505859375
24919.534329916,0.1126708984375,0.0037841796875,0.541259765625,-67.87109375,64.75830078125,20.93505859375
24919.534390625,0.1126708984375,0.0037841796875,0.5369873046875,-67.87109375,64.75830078125,20.93505859375
24919.551097708,0.1126708984375,0.0037841796875,0.5369873046875,-67.87109375,106.93359375,20.93505859375
24919.577009291,0.1126708984375,0.0037841796875,0.5369873046875,-67.87109375,106.93359375,22.88818359375
24919.577155875,0.2208251953125,0.0037841796875,0.5369873046875,-67.87109375,106.93359375,22.88818359375
24919.583616291,0.2208251953125,0.106689453125,0.5369873046875,-67.87109375,106.93359375,22.88818359375
24919.583680291,0.2208251953125,0.106689453125,0.627685546875,-67.87109375,106.93359375,22.88818359375
24919.59098975,0.2208251953125,0.106689453125,0.627685546875,-67.87109375,125.91552734375,22.88818359375
24919.592470875,0.2208251953125,0.106689453125,0.627685546875,-67.87109375,125.91552734375,20.08056640625
24919.622034291,0.35791015625,0.106689453125,0.627685546875,-67.87109375,125.91552734375,20.08056640625
24919.625869625,0.35791015625,0.1634521484375,0.627685546875,-67.87109375,125.91552734375,20.08056640625
24919.625986041,0.35791015625,0.1634521484375,0.733642578125,-67.87109375,125.91552734375,20.08056640625
24919.626072833,0.35791015625,0.1634521484375,0.733642578125,-67.87109375,139.0380859375,20.08056640625
24919.651028458,0.4453125,0.1634521484375,0.733642578125,-67.87109375,139.0380859375,20.08056640625
24919.651866166,0.4453125,0.106201171875,0.733642578125,-67.87109375,139.0380859375,20.08056640625
24919.651983083,0.4453125,0.106201171875,0.6815185546875,-67.87109375,139.0380859375,20.08056640625
24919.653026833,0.4453125,0.106201171875,0.6815185546875,-67.87109375,138.85498046875,20.08056640625
24919.653164083,0.4453125,0.106201171875,0.6815185546875,-67.87109375,138.85498046875,9.70458984375
24919.682165166,0.6475830078125,0.106201171875,0.6815185546875,-67.87109375,138.85498046875,9.70458984375
24919.682321375,0.6475830078125,0.2763671875,0.6815185546875,-67.87109375,138.85498046875,9.70458984375
24919.683351791,0.6475830078125,0.2763671875,0.7237548828125,-67.87109375,138.85498046875,9.70458984375
24919.683423083,0.6475830078125,0.2763671875,0.7237548828125,-90.88134765625,138.85498046875,9.70458984375
24919.701206083,0.6868896484375,0.2763671875,0.7237548828125,-90.88134765625,138.85498046875,9.70458984375
24919.7012975,0.6868896484375,0.3841552734375,0.7237548828125,-90.88134765625,138.85498046875,9.70458984375
24919.701374416,0.6868896484375,0.3841552734375,0.7987060546875,-90.88134765625,138.85498046875,9.70458984375
24919.726628458,0.6868896484375,0.3841552734375,0.7987060546875,-90.88134765625,141.54052734375,9.70458984375
24919.74240025,0.6868896484375,0.3841552734375,0.7987060546875,-90.88134765625,141.54052734375,-0.9765625
24919.742511875,0.8031005859375,0.3841552734375,0.7987060546875,-90.88134765625,141.54052734375,-0.9765625
24919.743417166,0.8031005859375,0.4249267578125,0.7987060546875,-90.88134765625,141.54052734375,-0.9765625
24919.743584041,0.8031005859375,0.4249267578125,0.7987060546875,-90.88134765625,143.310546875,-0.9765625
24919.788346875,0.9190673828125,0.4249267578125,0.7987060546875,-90.88134765625,143.310546875,-0.9765625
24919.788665375,0.9190673828125,0.35888671875,0.7987060546875,-90.88134765625,143.310546875,-0.9765625
24919.7887955,0.9190673828125,0.35888671875,0.7418212890625,-90.88134765625,143.310546875,-0.9765625
24919.788911083,0.9190673828125,0.35888671875,0.7418212890625,-45.7763671875,143.310546875,-0.9765625
24919.817408625,0.9351806640625,0.35888671875,0.7418212890625,-45.7763671875,143.310546875,-0.9765625
24919.817475958,0.9351806640625,0.4244384765625,0.7418212890625,-45.7763671875,143.310546875,-0.9765625
24919.817536375,0.9351806640625,0.4244384765625,0.7816162109375,-45.7763671875,143.310546875,-0.9765625
24919.863881166,0.9351806640625,0.4244384765625,0.7816162109375,-45.7763671875,135.3759765625,-0.9765625
24919.864246416,0.9351806640625,0.4244384765625,0.7816162109375,-45.7763671875,135.3759765625,1.40380859375
24919.864363458,1.233154296875,0.4244384765625,0.7816162109375,-45.7763671875,135.3759765625,1.40380859375
24919.864448875,1.233154296875,0.5145263671875,0.7816162109375,-45.7763671875,135.3759765625,1.40380859375
24919.88388225,1.233154296875,0.5145263671875,0.7816162109375,-45.7763671875,126.953125,1.40380859375
24919.883948333,1.233154296875,0.5145263671875,0.7816162109375,-45.7763671875,126.953125,6.9580078125
24919.907800208,1.151611328125,0.5145263671875,0.7816162109375,-45.7763671875,126.953125,6.9580078125
24919.907999208,1.151611328125,0.299560546875,0.7816162109375,-45.7763671875,126.953125,6.9580078125
24919.908080833,1.151611328125,0.299560546875,0.658447265625,-45.7763671875,126.953125,6.9580078125
24919.908375958,1.151611328125,0.299560546875,0.658447265625,-77.94189453125,126.953125,6.9580078125
24919.935862708,1.049072265625,0.299560546875,0.658447265625,-77.94189453125,126.953125,6.9580078125
24919.966378583,1.049072265625,0.5048828125,0.658447265625,-77.94189453125,126.953125,6.9580078125
24919.967058208,1.049072265625,0.5048828125,0.707275390625,-77.94189453125,126.953125,6.9580078125
24919.969051,1.049072265625,0.5048828125,0.707275390625,-77.94189453125,78.9794921875,6.9580078125
24919.969229083,1.049072265625,0.5048828125,0.707275390625,-77.94189453125,78.9794921875,21.728515625
24919.997146708,1.084228515625,0.5048828125,0.707275390625,-77.94189453125,78.9794921875,21.728515625
24919.997340166,1.084228515625,0.510498046875,0.707275390625,-77.94189453125,78.9794921875,21.728515625
24920.027845416,1.084228515625,0.510498046875,0.702392578125,-77.94189453125,78.9794921875,21.728515625
24920.057790708,1.084228515625,0.510498046875,0.702392578125,-77.94189453125,78.9794921875,20.93505859375
24920.058353625,1.078857421875,0.510498046875,0.702392578125,-77.94189453125,78.9794921875,20.93505859375
24920.058523458,1.078857421875,0.36083984375,0.702392578125,-77.94189453125,78.9794921875,20.93505859375
24920.058637958,1.078857421875,0.36083984375,0.702392578125,-77.94189453125,75.1953125,20.93505859375
24920.084544166,1.0794677734375,0.36083984375,0.702392578125,-77.94189453125,75.1953125,20.93505859375
24920.084620625,1.0794677734375,0.447265625,0.702392578125,-77.94189453125,75.1953125,20.93505859375
24920.084700958,1.0794677734375,0.447265625,0.5494384765625,-77.94189453125,75.1953125,20.93505859375
24920.087237416,1.0794677734375,0.447265625,0.5494384765625,-77.94189453125,62.80517578125,20.93505859375
24920.087386916,1.0794677734375,0.447265625,0.5494384765625,-77.94189453125,62.80517578125,29.23583984375
24920.101807416,1.00732421875,0.447265625,0.5494384765625,-77.94189453125,62.80517578125,29.23583984375
24920.148557416,1.00732421875,0.37548828125,0.5494384765625,-77.94189453125,62.80517578125,29.23583984375
24920.148804583,1.00732421875,0.37548828125,0.3760986328125,-77.94189453125,62.80517578125,29.23583984375
24920.148931541,1.00732421875,0.37548828125,0.3760986328125,-77.94189453125,46.93603515625,29.23583984375
24920.149623708,1.00732421875,0.37548828125,0.3760986328125,-77.94189453125,46.93603515625,24.7802734375
24920.177343791,1.00732421875,0.3917236328125,0.3760986328125,-77.94189453125,46.93603515625,24.7802734375
24920.183569458,1.00732421875,0.3917236328125,0.3092041015625,-77.94189453125,46.93603515625,24.7802734375
24920.183638333,1.00732421875,0.3917236328125,0.3092041015625,-14.892578125,46.93603515625,24.7802734375
24920.191924416,1.00732421875,0.3917236328125,0.3092041015625,-14.892578125,46.93603515625,21.17919921875
24920.20708725,0.9237060546875,0.3917236328125,0.3092041015625,-14.892578125,46.93603515625,21.17919921875
24920.2072825,0.9237060546875,0.3720703125,0.3092041015625,-14.892578125,46.93603515625,21.17919921875
24920.207383541,0.9237060546875,0.3720703125,0.2799072265625,-14.892578125,46.93603515625,21.17919921875
24920.222081166,0.9237060546875,0.3720703125,0.2799072265625,-14.892578125,26.55029296875,21.17919921875
24920.222233583,0.9237060546875,0.3720703125,0.2799072265625,-14.892578125,26.55029296875,16.41845703125
24920.23688575,0.88330078125,0.3720703125,0.2799072265625,-14.892578125,26.55029296875,16.41845703125
24920.237040666,0.88330078125,0.2554931640625,0.2799072265625,-14.892578125,26.55029296875,16.41845703125
24920.238041,0.88330078125,0.2554931640625,0.2784423828125,-14.892578125,26.55029296875,16.41845703125
24920.251769541,0.88330078125,0.2554931640625,0.2784423828125,-14.892578125,8.4228515625,16.41845703125
24920.25190725,0.88330078125,0.2554931640625,0.2784423828125,-14.892578125,8.4228515625,12.02392578125
24920.267038833,0.8648681640625,0.2554931640625,0.2784423828125,-14.892578125,8.4228515625,12.02392578125
24920.267277666,0.8648681640625,0.393798828125,0.2784423828125,-14.892578125,8.4228515625,12.02392578125
24920.267404666,0.8648681640625,0.393798828125,0.242431640625,-14.892578125,8.4228515625,12.02392578125
24920.283241875,0.8648681640625,0.393798828125,0.242431640625,-14.892578125,-4.5166015625,12.02392578125
NEW_REP,,,,,,
24920.30045525,0.8648681640625,0.393798828125,0.242431640625,-14.892578125,-4.5166015625,4.7607421875
24920.3005295,0.8905029296875,0.393798828125,0.242431640625,-14.892578125,-4.5166015625,4.7607421875
24920.300593708,0.8905029296875,0.6378173828125,0.242431640625,-14.892578125,-4.5166015625,4.7607421875
24920.31705575,0.8905029296875,0.6378173828125,0.242431640625,-14.892578125,-10.498046875,4.7607421875
24920.317123208,0.8905029296875,0.6378173828125,0.242431640625,-14.892578125,-10.498046875,-1.5869140625
24920.342200125,0.9033203125,0.6378173828125,0.242431640625,-14.892578125,-10.498046875,-1.5869140625
24920.342346333,0.9033203125,0.574951171875,0.242431640625,-14.892578125,-10.498046875,-1.5869140625
24920.342872291,0.9033203125,0.574951171875,0.1629638671875,-14.892578125,-10.498046875,-1.5869140625
24920.342993875,0.9033203125,0.574951171875,0.1629638671875,21.78955078125,-10.498046875,-1.5869140625
24920.356920083,0.9208984375,0.574951171875,0.1629638671875,21.78955078125,-10.498046875,-1.5869140625
24920.357071208,0.9208984375,0.4373779296875,0.1629638671875,21.78955078125,-10.498046875,-1.5869140625
24920.3584395,0.9208984375,0.4373779296875,0.1517333984375,21.78955078125,-10.498046875,-1.5869140625
24920.372091375,0.9208984375,0.4373779296875,0.1517333984375,21.78955078125,0.244140625,-1.5869140625
24920.372240291,0.9208984375,0.4373779296875,0.1517333984375,21.78955078125,0.244140625,-2.0751953125
24920.386696375,0.9957275390625,0.4373779296875,0.1517333984375,21.78955078125,0.244140625,-2.0751953125
24920.447181458,0.9957275390625,0.3978271484375,0.1517333984375,21.78955078125,0.244140625,-2.0751953125
24920.447360458,0.9957275390625,0.3978271484375,0.2457275390625,21.78955078125,0.244140625,-2.0751953125
24920.448605208,0.9957275390625,0.3978271484375,0.2457275390625,21.78955078125,-1.64794921875,-2.0751953125
24920.448693625,0.9957275390625,0.3978271484375,0.2457275390625,21.78955078125,-1.64794921875,-1.5869140625
24920.477134416,0.9957275390625,0.40673828125,0.2457275390625,21.78955078125,-1.64794921875,-1.5869140625
24920.477336791,0.9957275390625,0.40673828125,0.33251953125,21.78955078125,-1.64794921875,-1.5869140625
24920.477411958,0.9957275390625,0.40673828125,0.33251953125,24.59716796875,-1.64794921875,-1.5869140625
24920.491882208,0.9957275390625,0.40673828125,0.33251953125,24.59716796875,-1.64794921875,-2.62451171875
24920.50677775,1.1380615234375,0.40673828125,0.33251953125,24.59716796875,-1.64794921875,-2.62451171875
24920.506929291,1.1380615234375,0.2647705078125,0.33251953125,24.59716796875,-1.64794921875,-2.62451171875
24920.507011125,1.1380615234375,0.2647705078125,0.5994873046875,24.59716796875,-1.64794921875,-2.62451171875
24920.521877041,1.1380615234375,0.2647705078125,0.5994873046875,24.59716796875,-37.353515625,-2.62451171875
24920.521999875,1.1380615234375,0.2647705078125,0.5994873046875,24.59716796875,-37.353515625,-17.02880859375
24920.536563041,1.15966796875,0.2647705078125,0.5994873046875,24.59716796875,-37.353515625,-17.02880859375
24920.536696291,1.15966796875,0.361328125,0.5994873046875,24.59716796875,-37.353515625,-17.02880859375
24920.536750375,1.15966796875,0.361328125,0.6676025390625,24.59716796875,-37.353515625,-17.02880859375
24920.551679333,1.15966796875,0.361328125,0.6676025390625,24.59716796875,-58.59375,-17.02880859375
24920.551716541,1.15966796875,0.361328125,0.6676025390625,24.59716796875,-58.59375,-26.123046875
24920.580879291,1.1904296875,0.361328125,0.6676025390625,24.59716796875,-58.59375,-26.123046875
24920.582314,1.1904296875,0.472900390625,0.6676025390625,24.59716796875,-58.59375,-26.123046875
24920.59709475,1.1904296875,0.472900390625,0.6776123046875,24.59716796875,-58.59375,-26.123046875
24920.59733875,1.1904296875,0.472900390625,0.6776123046875,24.59716796875,-72.021484375,-26.123046875
24920.597435791,1.212890625,0.472900390625,0.6776123046875,24.59716796875,-72.021484375,-26.123046875
24920.597908666,1.212890625,0.3712158203125,0.6776123046875,24.59716796875,-72.021484375,-26.123046875
24920.627250291,1.212890625,0.3712158203125,0.6776123046875,64.88037109375,-72.021484375,-26.123046875
24920.634525916,1.212890625,0.3712158203125,0.6776123046875,64.88037109375,-82.09228515625,-26.123046875
24920.634648541,1.212890625,0.3712158203125,0.6776123046875,64.88037109375,-82.09228515625,-40.6494140625
24920.6419955,1.225830078125,0.3712158203125,0.6776123046875,64.88037109375,-82.09228515625,-40.6494140625
24920.64222925,1.225830078125,0.3712158203125,0.6776123046875,36.1328125,-82.09228515625,-40.6494140625
24920.642355666,1.225830078125,0.3712158203125,0.6776123046875,36.1328125,-99.18212890625,-40.6494140625
24920.642978916,1.225830078125,0.3712158203125,0.6776123046875,36.1328125,-99.18212890625,-43.45703125
24920.656708083,1.2021484375,0.3712158203125,0.6776123046875,36.1328125,-99.18212890625,-43.45703125
24920.656869166,1.2021484375,0.46875,0.6776123046875,36.1328125,-99.18212890625,-43.45703125
24920.656959458,1.2021484375,0.46875,0.643310546875,36.1328125,-99.18212890625,-43.45703125
24920.6867715,1.2021484375,0.46875,0.643310546875,36.1328125,-108.5205078125,-43.45703125
24920.68698,1.2021484375,0.46875,0.643310546875,36.1328125,-108.5205078125,-43.3349609375
24920.687714583,1.205322265625,0.46875,0.643310546875,36.1328125,-108.5205078125,-43.3349609375
24920.687894541,1.205322265625,0.5335693359375,0.643310546875,36.1328125,-108.5205078125,-43.3349609375
24920.70205725,1.205322265625,0.5335693359375,0.643310546875,36.1328125,-116.14990234375,-43.3349609375
24920.77755175,1.205322265625,0.5335693359375,0.643310546875,36.1328125,-116.14990234375,-45.166015625
24920.777989625,1.154052734375,0.5335693359375,0.643310546875,36.1328125,-116.14990234375,-45.166015625
24920.778321833,1.154052734375,0.490966796875,0.643310546875,36.1328125,-116.14990234375,-45.166015625
24920.7785765,1.154052734375,0.490966796875,0.65625,36.1328125,-116.14990234375,-45.166015625
24920.800537916,1.154052734375,0.490966796875,0.65625,36.1328125,-122.00927734375,-45.166015625
24920.800605291,1.154052734375,0.490966796875,0.65625,36.1328125,-122.00927734375,-49.98779296875
24920.821503791,0.9796142578125,0.490966796875,0.65625,36.1328125,-122.00927734375,-49.98779296875
24920.821604333,0.9796142578125,0.2633056640625,0.65625,36.1328125,-122.00927734375,-49.98779296875
24920.8224715,0.9796142578125,0.2633056640625,0.6904296875,36.1328125,-122.00927734375,-49.98779296875
24920.822550666,0.9796142578125,0.2633056640625,0.6904296875,104.91943359375,-122.00927734375,-49.98779296875
24920.837234291,0.904296875,0.2633056640625,0.6904296875,104.91943359375,-122.00927734375,-49.98779296875
24920.837332,0.904296875,0.250732421875,0.6904296875,104.91943359375,-122.00927734375,-49.98779296875
24920.837364375,0.904296875,0.250732421875,0.6937255859375,104.91943359375,-122.00927734375,-49.98779296875
24920.8574455,0.904296875,0.250732421875,0.6937255859375,104.91943359375,-133.97216796875,-49.98779296875
24920.8575265,0.904296875,0.250732421875,0.6937255859375,104.91943359375,-133.97216796875,-45.34912109375
24920.866593625,0.7906494140625,0.250732421875,0.6937255859375,104.91943359375,-133.97216796875,-45.34912109375
24920.882593958,0.7906494140625,0.1119384765625,0.6937255859375,104.91943359375,-133.97216796875,-45.34912109375
24920.882636125,0.7906494140625,0.1119384765625,0.6873779296875,104.91943359375,-133.97216796875,-45.34912109375
24920.882671416,0.7906494140625,0.1119384765625,0.6873779296875,104.91943359375,-130.7373046875,-45.34912109375
24920.88278,0.7906494140625,0.1119384765625,0.6873779296875,104.91943359375,-130.7373046875,-42.236328125
24920.899329875,0.724853515625,0.1119384765625,0.6873779296875,104.91943359375,-130.7373046875,-42.236328125
24920.899372,0.724853515625,0.048583984375,0.6873779296875,104.91943359375,-130.7373046875,-42.236328125
24920.899408,0.724853515625,0.048583984375,0.7119140625,104.91943359375,-130.7373046875,-42.236328125
24920.916305125,0.724853515625,0.048583984375,0.7119140625,104.91943359375,-130.55419921875,-42.236328125
24920.91638925,0.724853515625,0.048583984375,0.7119140625,104.91943359375,-130.55419921875,-34.85107421875
24920.941792791,0.603515625,0.048583984375,0.7119140625,104.91943359375,-130.55419921875,-34.85107421875
24920.942005666,0.603515625,0.0869140625,0.7119140625,104.91943359375,-130.55419921875,-34.85107421875
24920.94269225,0.603515625,0.0869140625,0.634521484375,104.91943359375,-130.55419921875,-34.85107421875
24920.94286775,0.603515625,0.0869140625,0.634521484375,38.26904296875,-130.55419921875,-34.85107421875
24920.972277166,0.504638671875,0.0869140625,0.634521484375,38.26904296875,-130.55419921875,-34.85107421875
24920.97248075,0.504638671875,0.0439453125,0.634521484375,38.26904296875,-130.55419921875,-34.85107421875
24920.977003333,0.504638671875,0.0439453125,0.65869140625,38.26904296875,-130.55419921875,-34.85107421875
24920.9771015,0.504638671875,0.0439453125,0.65869140625,38.26904296875,-135.55908203125,-34.85107421875
24920.986985916,0.3924560546875,0.0439453125,0.65869140625,38.26904296875,-135.55908203125,-34.85107421875
24920.991295625,0.3924560546875,0.004150390625,0.65869140625,38.26904296875,-135.55908203125,-34.85107421875
24920.991438208,0.3924560546875,0.004150390625,0.59814453125,38.26904296875,-135.55908203125,-34.85107421875
24921.001922291,0.3924560546875,0.004150390625,0.59814453125,38.26904296875,-130.7373046875,-34.85107421875
24921.017808916,0.3924560546875,0.004150390625,0.59814453125,38.26904296875,-130.7373046875,-23.01025390625
24921.048164041,0.278076171875,0.004150390625,0.59814453125,38.26904296875,-130.7373046875,-23.01025390625
24921.077147416,0.278076171875,-0.0523681640625,0.59814453125,38.26904296875,-130.7373046875,-23.01025390625
24921.092472708,0.278076171875,-0.0523681640625,0.5413818359375,38.26904296875,-130.7373046875,-23.01025390625
24921.092730125,0.278076171875,-0.0523681640625,0.5413818359375,38.26904296875,-121.09375,-23.01025390625
24921.092858833,0.1878662109375,-0.0523681640625,0.5413818359375,38.26904296875,-121.09375,-23.01025390625
24921.093071416,0.1878662109375,-0.0523681640625,0.4742431640625,38.26904296875,-121.09375,-23.01025390625
24921.117116958,0.1878662109375,-0.0523681640625,0.4742431640625,38.26904296875,-112.548828125,-23.01025390625
24921.117178541,0.1878662109375,-0.0523681640625,0.4742431640625,38.26904296875,-112.548828125,-10.6201171875
24921.15156475,-0.135986328125,-0.0523681640625,0.4742431640625,38.26904296875,-112.548828125,-10.6201171875
24921.153426166,-0.135986328125,-0.1201171875,0.4742431640625,38.26904296875,-112.548828125,-10.6201171875
24921.15361575,-0.135986328125,-0.1201171875,0.347900390625,38.26904296875,-112.548828125,-10.6201171875
24921.153706708,-0.135986328125,-0.1201171875,0.347900390625,13.36669921875,-112.548828125,-10.6201171875
24921.181820625,-0.2227783203125,-0.1201171875,0.347900390625,13.36669921875,-112.548828125,-10.6201171875
24921.182001083,-0.2227783203125,-0.1690673828125,0.347900390625,13.36669921875,-112.548828125,-10.6201171875
24921.18304775,-0.2227783203125,-0.1690673828125,0.2435302734375,13.36669921875,-112.548828125,-10.6201171875
24921.183189375,-0.2227783203125,-0.1690673828125,0.2435302734375,13.36669921875,-64.63623046875,-10.6201171875
24921.212094,-0.2725830078125,-0.1690673828125,0.2435302734375,13.36669921875,-64.63623046875,-10.6201171875
24921.212264125,-0.2725830078125,-0.2713623046875,0.2435302734375,13.36669921875,-64.63623046875,-10.6201171875
24921.213061791,-0.2725830078125,-0.2713623046875,0.180908203125,13.36669921875,-64.63623046875,-10.6201171875
24921.24218225,-0.2725830078125,-0.2713623046875,0.180908203125,13.36669921875,-34.7900390625,-10.6201171875
24921.242369208,-0.2725830078125,-0.2713623046875,0.180908203125,13.36669921875,-34.7900390625,8.30078125
24921.243219375,-0.3043212890625,-0.2713623046875,0.180908203125,13.36669921875,-34.7900390625,8.30078125
24921.243389166,-0.3043212890625,-0.2200927734375,0.180908203125,13.36669921875,-34.7900390625,8.30078125
24921.267638,-0.3043212890625,-0.2200927734375,0.180908203125,13.36669921875,-1.3427734375,8.30078125
24921.267718666,-0.3043212890625,-0.2200927734375,0.180908203125,13.36669921875,-1.3427734375,9.033203125
24921.286219041,-0.2418212890625,-0.2200927734375,0.180908203125,13.36669921875,-1.3427734375,9.033203125
24921.288099416,-0.2418212890625,-0.1824951171875,0.180908203125,13.36669921875,-1.3427734375,9.033203125
24921.288285416,-0.2418212890625,-0.1824951171875,0.2059326171875,13.36669921875,-1.3427734375,9.033203125
24921.288389958,-0.2418212890625,-0.1824951171875,0.2059326171875,-32.8369140625,-1.3427734375,9.033203125
24921.317041875,-0.18505859375,-0.1824951171875,0.2059326171875,-32.8369140625,-1.3427734375,9.033203125
24921.317213125,-0.18505859375,-0.189697265625,0.2059326171875,-32.8369140625,-1.3427734375,9.033203125
24921.347354791,-0.18505859375,-0.189697265625,0.2576904296875,-32.8369140625,-1.3427734375,9.033203125
24921.347549333,-0.18505859375,-0.189697265625,0.2576904296875,-32.8369140625,43.64013671875,9.033203125
24921.367758958,-0.0772705078125,-0.189697265625,0.2576904296875,-32.8369140625,43.64013671875,9.033203125
24921.367843166,-0.0772705078125,-0.193115234375,0.2576904296875,-32.8369140625,43.64013671875,9.033203125
24921.376858833,-0.0772705078125,-0.193115234375,0.2576904296875,-35.70556640625,43.64013671875,9.033203125
24921.377061541,-0.0772705078125,-0.193115234375,0.2576904296875,-35.70556640625,59.4482421875,9.033203125
24921.377181125,-0.0772705078125,-0.193115234375,0.2576904296875,-35.70556640625,59.4482421875,7.080078125
24921.42188725,0.036376953125,-0.193115234375,0.2576904296875,-35.70556640625,59.4482421875,7.080078125
24921.4231495,0.036376953125,-0.079833984375,0.2576904296875,-35.70556640625,59.4482421875,7.080078125
24921.423299166,0.036376953125,-0.079833984375,0.481689453125,-35.70556640625,59.4482421875,7.080078125
24921.423380708,0.036376953125,-0.079833984375,0.481689453125,-35.70556640625,59.4482421875,2.01416015625
24921.449697458,0.036376953125,0.0562744140625,0.481689453125,-35.70556640625,59.4482421875,2.01416015625
24921.4497405,0.036376953125,0.0562744140625,0.65869140625,-35.70556640625,59.4482421875,2.01416015625
24921.449776416,0.036376953125,0.0562744140625,0.65869140625,-76.47705078125,59.4482421875,2.01416015625
24921.467173,0.036376953125,0.0562744140625,0.65869140625,-76.47705078125,59.4482421875,2.13623046875
24921.483174833,0.28857421875,0.0562744140625,0.65869140625,-76.47705078125,59.4482421875,2.13623046875
24921.483220875,0.28857421875,0.08251953125,0.65869140625,-76.47705078125,59.4482421875,2.13623046875
24921.4832575,0.28857421875,0.08251953125,0.591796875,-76.47705078125,59.4482421875,2.13623046875
24921.499501625,0.28857421875,0.08251953125,0.591796875,-76.47705078125,59.4482421875,1.52587890625
24921.52613925,0.4498291015625,0.08251953125,0.591796875,-76.47705078125,59.4482421875,1.52587890625
24921.532553416,0.4498291015625,0.189697265625,0.591796875,-76.47705078125,59.4482421875,1.52587890625
24921.532591833,0.4498291015625,0.189697265625,0.8526611328125,-76.47705078125,59.4482421875,1.52587890625
24921.53262725,0.4498291015625,0.189697265625,0.8526611328125,-76.47705078125,122.314453125,1.52587890625
24921.5565025,0.5604248046875,0.189697265625,0.8526611328125,-76.47705078125,122.314453125,1.52587890625
24921.556579791,0.5604248046875,0.21484375,0.8526611328125,-76.47705078125,122.314453125,1.52587890625
24921.557805,0.5604248046875,0.21484375,0.644775390625,-76.47705078125,122.314453125,1.52587890625
24921.557879458,0.5604248046875,0.21484375,0.644775390625,-76.47705078125,124.20654296875,1.52587890625
24921.586934083,0.63916015625,0.21484375,0.644775390625,-76.47705078125,124.20654296875,1.52587890625
24921.589155416,0.63916015625,0.297607421875,0.644775390625,-76.47705078125,124.20654296875,1.52587890625
24921.589295583,0.63916015625,0.297607421875,0.8619384765625,-76.47705078125,124.20654296875,1.52587890625
24921.589339291,0.63916015625,0.297607421875,0.8619384765625,-76.47705078125,128.5400390625,1.52587890625
24921.616822458,0.72119140625,0.297607421875,0.8619384765625,-76.47705078125,128.5400390625,1.52587890625
24921.618252666,0.72119140625,0.49072265625,0.8619384765625,-76.47705078125,128.5400390625,1.52587890625
24921.618342541,0.72119140625,0.49072265625,0.9383544921875,-76.47705078125,128.5400390625,1.52587890625
24921.618398416,0.72119140625,0.49072265625,0.9383544921875,-76.47705078125,130.67626953125,1.52587890625
24921.647312291,0.8712158203125,0.49072265625,0.9383544921875,-76.47705078125,130.67626953125,1.52587890625
24921.647401583,0.8712158203125,0.317626953125,0.9383544921875,-76.47705078125,130.67626953125,1.52587890625
24921.648929166,0.8712158203125,0.317626953125,0.720458984375,-76.47705078125,130.67626953125,1.52587890625
24921.705826541,0.8712158203125,0.317626953125,0.720458984375,-76.47705078125,120.4833984375,1.52587890625
24921.707661833,0.8712158203125,0.317626953125,0.720458984375,-76.47705078125,120.4833984375,4.150390625
24921.723376333,0.9013671875,0.317626953125,0.720458984375,-76.47705078125,120.4833984375,4.150390625
24921.73841,0.9013671875,0.4171142578125,0.720458984375,-76.47705078125,120.4833984375,4.150390625
24921.738607708,0.9013671875,0.4171142578125,0.720458984375,-76.47705078125,117.1875,4.150390625
24921.73869125,0.9013671875,0.4171142578125,0.720458984375,-76.47705078125,117.1875,9.1552734375
24921.766893625,0.9649658203125,0.4171142578125,0.720458984375,-76.47705078125,117.1875,9.1552734375
24921.766955541,0.9649658203125,0.44677734375,0.720458984375,-76.47705078125,117.1875,9.1552734375
24921.76700925,0.9649658203125,0.44677734375,0.9560546875,-76.47705078125,117.1875,9.1552734375
24921.795997125,0.95068359375,0.44677734375,0.9560546875,-76.47705078125,117.1875,9.1552734375
24921.797914541,0.95068359375,0.4093017578125,0.9560546875,-76.47705078125,117.1875,9.1552734375
24921.798090583,0.95068359375,0.4093017578125,0.951171875,-76.47705078125,117.1875,9.1552734375
24921.798182958,0.95068359375,0.4093017578125,0.951171875,-27.03857421875,117.1875,9.1552734375
24921.857297625,1.02001953125,0.4093017578125,0.951171875,-27.03857421875,117.1875,9.1552734375
24921.857494208,1.02001953125,0.301513671875,0.951171875,-27.03857421875,117.1875,9.1552734375
24921.858008416,1.02001953125,0.301513671875,0.7718505859375,-27.03857421875,117.1875,9.1552734375
24921.858170208,1.02001953125,0.301513671875,0.7718505859375,-18.37158203125,117.1875,9.1552734375
24921.884386208,1.04052734375,0.301513671875,0.7718505859375,-18.37158203125,117.1875,9.1552734375
24921.884466666,1.04052734375,0.4061279296875,0.7718505859375,-18.37158203125,117.1875,9.1552734375
24921.884557875,1.04052734375,0.4061279296875,0.7081298828125,-18.37158203125,117.1875,9.1552734375
24921.917283791,1.04052734375,0.4061279296875,0.7081298828125,-18.37158203125,76.0498046875,9.1552734375
24921.917473541,1.04052734375,0.4061279296875,0.7081298828125,-18.37158203125,76.0498046875,1.0986328125
24921.917578875,1.040283203125,0.4061279296875,0.7081298828125,-18.37158203125,76.0498046875,1.0986328125
24921.918063416,1.040283203125,0.2813720703125,0.7081298828125,-18.37158203125,76.0498046875,1.0986328125
24921.947093416,1.040283203125,0.2813720703125,0.7081298828125,-18.37158203125,75.1953125,1.0986328125
24921.947197375,1.040283203125,0.2813720703125,0.7081298828125,-18.37158203125,75.1953125,9.33837890625
24921.948185041,1.0191650390625,0.2813720703125,0.7081298828125,-18.37158203125,75.1953125,9.33837890625
24921.977192916,1.0191650390625,0.2813720703125,0.4718017578125,-18.37158203125,75.1953125,9.33837890625
24921.977393458,1.0191650390625,0.2813720703125,0.4718017578125,-52.3681640625,75.1953125,9.33837890625
24921.977535958,1.0191650390625,0.2813720703125,0.4718017578125,-52.3681640625,51.20849609375,9.33837890625
24921.992036666,0.973388671875,0.2813720703125,0.4718017578125,-52.3681640625,51.20849609375,9.33837890625
24921.99225575,0.973388671875,0.4359130859375,0.4718017578125,-52.3681640625,51.20849609375,9.33837890625
24921.992362333,0.973388671875,0.4359130859375,0.4534912109375,-52.3681640625,51.20849609375,9.33837890625
24922.007519791,0.973388671875,0.4359130859375,0.4534912109375,-52.3681640625,42.66357421875,9.33837890625
24922.007661,0.973388671875,0.4359130859375,0.4534912109375,-52.3681640625,42.66357421875,7.568359375
24922.022164708,0.9285888671875,0.4359130859375,0.4534912109375,-52.3681640625,42.66357421875,7.568359375
24922.022290666,0.9285888671875,0.4642333984375,0.4534912109375,-52.3681640625,42.66357421875,7.568359375
24922.022333125,0.9285888671875,0.4642333984375,0.332275390625,-52.3681640625,42.66357421875,7.568359375
24922.037020791,0.9285888671875,0.4642333984375,0.332275390625,-52.3681640625,37.7197265625,7.568359375
24922.0371215,0.9285888671875,0.4642333984375,0.332275390625,-52.3681640625,37.7197265625,7.62939453125
24922.051762666,0.9454345703125,0.4642333984375,0.332275390625,-52.3681640625,37.7197265625,7.62939453125
24922.051816916,0.9454345703125,0.4324951171875,0.332275390625,-52.3681640625,37.7197265625,7.62939453125
24922.053098125,0.9454345703125,0.4324951171875,0.33349609375,-52.3681640625,37.7197265625,7.62939453125
24922.082321333,0.9454345703125,0.4324951171875,0.33349609375,-52.3681640625,38.63525390625,7.62939453125
24922.0824655,0.9454345703125,0.4324951171875,0.33349609375,-52.3681640625,38.63525390625,5.06591796875
24922.082498541,0.9874267578125,0.4324951171875,0.33349609375,-52.3681640625,38.63525390625,5.06591796875
24922.082529166,0.9874267578125,0.4759521484375,0.33349609375,-52.3681640625,38.63525390625,5.06591796875
24922.099398416,0.9874267578125,0.4759521484375,0.33349609375,-52.3681640625,32.2265625,5.06591796875
24922.0994385,0.9874267578125,0.4759521484375,0.33349609375,-52.3681640625,32.2265625,7.568359375
24922.132741833,0.9342041015625,0.4759521484375,0.33349609375,-52.3681640625,32.2265625,7.568359375
24922.132789708,0.9342041015625,0.36669921875,0.33349609375,-52.3681640625,32.2265625,7.568359375
24922.132829166,0.9342041015625,0.36669921875,0.3114013671875,-52.3681640625,32.2265625,7.568359375
24922.132866833,0.9342041015625,0.36669921875,0.3114013671875,7.01904296875,32.2265625,7.568359375
24922.15662375,0.943359375,0.36669921875,0.3114013671875,7.01904296875,32.2265625,7.568359375
24922.158145791,0.943359375,0.37939453125,0.3114013671875,7.01904296875,32.2265625,7.568359375
24922.158240791,0.943359375,0.37939453125,0.29931640625,7.01904296875,32.2265625,7.568359375
24922.172261041,0.943359375,0.37939453125,0.29931640625,-1.15966796875,32.2265625,7.568359375
24922.172493958,0.945068359375,0.37939453125,0.29931640625,-1.15966796875,32.2265625,7.568359375
24922.17258575,0.945068359375,0.3931884765625,0.29931640625,-1.15966796875,32.2265625,7.568359375
24922.172639291,0.945068359375,0.3931884765625,0.266357421875,-1.15966796875,32.2265625,7.568359375
24922.186785958,0.945068359375,0.3931884765625,0.266357421875,-1.15966796875,11.77978515625,7.568359375
24922.186912708,0.945068359375,0.3931884765625,0.266357421875,-1.15966796875,11.77978515625,6.4697265625
24922.202133625,0.89990234375,0.3931884765625,0.266357421875,-1.15966796875,11.77978515625,6.4697265625
24922.20229975,0.89990234375,0.419189453125,0.266357421875,-1.15966796875,11.77978515625,6.4697265625
24922.202355208,0.89990234375,0.419189453125,0.252685546875,-1.15966796875,11.77978515625,6.4697265625
24922.246657125,0.89990234375,0.419189453125,0.252685546875,-1.15966796875,6.28662109375,6.4697265625
NEW_REP,,,,,,
24922.277113166,0.89990234375,0.419189453125,0.252685546875,-1.15966796875,6.28662109375,2.99072265625
24922.283643833,0.91259765625,0.419189453125,0.252685546875,-1.15966796875,6.28662109375,2.99072265625
24922.283704833,0.91259765625,0.421142578125,0.252685546875,-1.15966796875,6.28662109375,2.99072265625
24922.291988916,0.91259765625,0.421142578125,0.252685546875,-1.15966796875,6.89697265625,2.99072265625
24922.292169625,0.9490966796875,0.421142578125,0.252685546875,-1.15966796875,6.89697265625,2.99072265625
24922.292240416,0.9490966796875,0.3699951171875,0.252685546875,-1.15966796875,6.89697265625,2.99072265625
24922.292883458,0.9490966796875,0.3699951171875,0.2574462890625,-1.15966796875,6.89697265625,2.99072265625
24922.38203925,0.9490966796875,0.3699951171875,0.2574462890625,-1.15966796875,0.6103515625,2.99072265625
24922.382237458,0.9490966796875,0.3699951171875,0.2574462890625,-1.15966796875,0.6103515625,0.3662109375
24922.382859958,0.987060546875,0.3699951171875,0.2574462890625,-1.15966796875,0.6103515625,0.3662109375
24922.383025541,0.987060546875,0.3984375,0.2574462890625,-1.15966796875,0.6103515625,0.3662109375
24922.442778083,0.987060546875,0.3984375,0.2574462890625,-1.15966796875,-4.45556640625,0.3662109375
24922.443940291,0.987060546875,0.3984375,0.2574462890625,-1.15966796875,-4.45556640625,-1.0986328125
24922.44429125,1.100341796875,0.3984375,0.2574462890625,-1.15966796875,-4.45556640625,-1.0986328125
24922.444390166,1.100341796875,0.2979736328125,0.2574462890625,-1.15966796875,-4.45556640625,-1.0986328125
24922.467907041,1.100341796875,0.2979736328125,0.2574462890625,-1.15966796875,-32.65380859375,-1.0986328125
24922.467993416,1.100341796875,0.2979736328125,0.2574462890625,-1.15966796875,-32.65380859375,-1.15966796875
24922.502355458,1.1722412109375,0.2979736328125,0.2574462890625,-1.15966796875,-32.65380859375,-1.15966796875
24922.503902916,1.1722412109375,0.34814453125,0.2574462890625,-1.15966796875,-32.65380859375,-1.15966796875
24922.504192333,1.1722412109375,0.34814453125,0.715576171875,-1.15966796875,-32.65380859375,-1.15966796875
24922.504327958,1.1722412109375,0.34814453125,0.715576171875,19.04296875,-32.65380859375,-1.15966796875
24922.517707583,1.1575927734375,0.34814453125,0.715576171875,19.04296875,-32.65380859375,-1.15966796875
24922.517786083,1.1575927734375,0.43994140625,0.715576171875,19.04296875,-32.65380859375,-1.15966796875
24922.517855041,1.1575927734375,0.43994140625,0.722412109375,19.04296875,-32.65380859375,-1.15966796875
24922.5474105,1.1575927734375,0.43994140625,0.722412109375,19.04296875,-90.63720703125,-1.15966796875
24922.547599833,1.1575927734375,0.43994140625,0.722412109375,19.04296875,-90.63720703125,-14.95361328125
24922.548222458,1.2308349609375,0.43994140625,0.722412109375,19.04296875,-90.63720703125,-14.95361328125
24922.548393166,1.2308349609375,0.3564453125,0.722412109375,19.04296875,-90.63720703125,-14.95361328125
24922.577076458,1.2308349609375,0.3564453125,0.697265625,19.04296875,-90.63720703125,-14.95361328125
24922.57727775,1.2308349609375,0.3564453125,0.697265625,38.818359375,-90.63720703125,-14.95361328125
24922.577767333,1.2308349609375,0.3564453125,0.697265625,38.818359375,-104.06494140625,-14.95361328125
24922.592250958,1.2200927734375,0.3564453125,0.697265625,38.818359375,-104.06494140625,-14.95361328125
24922.592439375,1.2200927734375,0.40625,0.697265625,38.818359375,-104.06494140625,-14.95361328125
24922.592544708,1.2200927734375,0.40625,0.62353515625,38.818359375,-104.06494140625,-14.95361328125
24922.636606375,1.2200927734375,0.40625,0.62353515625,38.818359375,-117.73681640625,-14.95361328125
24922.636865416,1.2200927734375,0.40625,0.62353515625,38.818359375,-117.73681640625,-18.06640625
24922.667695375,1.162841796875,0.40625,0.62353515625,38.818359375,-117.73681640625,-18.06640625
24922.6846655,1.162841796875,0.4632568359375,0.62353515625,38.818359375,-117.73681640625,-18.06640625
24922.684743375,1.162841796875,0.4632568359375,0.62353515625,38.818359375,-131.65283203125,-18.06640625
24922.68481675,1.162841796875,0.4632568359375,0.62353515625,38.818359375,-131.65283203125,-14.404296875
24922.701160958,1.0711669921875,0.4632568359375,0.62353515625,38.818359375,-131.65283203125,-14.404296875
24922.701246625,1.0711669921875,0.4632568359375,0.62353515625,70.80078125,-131.65283203125,-14.404296875
24922.701320416,1.0711669921875,0.4632568359375,0.62353515625,70.80078125,-138.7939453125,-14.404296875
24922.711911375,1.0711669921875,0.4632568359375,0.62353515625,70.80078125,-138.7939453125,-7.99560546875
24922.729070208,0.9534912109375,0.4632568359375,0.62353515625,70.80078125,-138.7939453125,-7.99560546875
24922.729202041,0.9534912109375,0.409423828125,0.62353515625,70.80078125,-138.7939453125,-7.99560546875
24922.729270541,0.9534912109375,0.409423828125,0.7540283203125,70.80078125,-138.7939453125,-7.99560546875
24922.742781,0.9534912109375,0.409423828125,0.7540283203125,70.80078125,-141.7236328125,-7.99560546875
24922.742903916,0.9534912109375,0.409423828125,0.7540283203125,70.80078125,-141.7236328125,-3.84521484375
24922.772681,0.8031005859375,0.409423828125,0.7540283203125,70.80078125,-141.7236328125,-3.84521484375
24922.772857,0.8031005859375,0.3543701171875,0.7540283203125,70.80078125,-141.7236328125,-3.84521484375
24922.77292075,0.8031005859375,0.3543701171875,0.710693359375,70.80078125,-141.7236328125,-3.84521484375
24922.773132583,0.8031005859375,0.3543701171875,0.710693359375,78.61328125,-141.7236328125,-3.84521484375
24922.801996625,0.6995849609375,0.3543701171875,0.710693359375,78.61328125,-141.7236328125,-3.84521484375
24922.803709666,0.6995849609375,0.2939453125,0.710693359375,78.61328125,-141.7236328125,-3.84521484375
24922.803967875,0.6995849609375,0.2939453125,0.704345703125,78.61328125,-141.7236328125,-3.84521484375
24922.804101833,0.6995849609375,0.2939453125,0.704345703125,74.3408203125,-141.7236328125,-3.84521484375
24922.908321458,0.61328125,0.2939453125,0.704345703125,74.3408203125,-141.7236328125,-3.84521484375
24922.916837375,0.61328125,0.2904052734375,0.704345703125,74.3408203125,-141.7236328125,-3.84521484375
24922.916974,0.61328125,0.2904052734375,0.722900390625,74.3408203125,-141.7236328125,-3.84521484375
24922.923226666,0.61328125,0.2904052734375,0.722900390625,74.3408203125,-138.7939453125,-3.84521484375
24922.923474166,0.532958984375,0.2904052734375,0.722900390625,74.3408203125,-138.7939453125,-3.84521484375
24922.951081,0.532958984375,0.298828125,0.722900390625,74.3408203125,-138.7939453125,-3.84521484375
24922.967288958,0.532958984375,0.298828125,0.7042236328125,74.3408203125,-138.7939453125,-3.84521484375
24922.967590541,0.532958984375,0.298828125,0.7042236328125,74.3408203125,-130.43212890625,-3.84521484375
24922.967766666,0.532958984375,0.298828125,0.7042236328125,74.3408203125,-130.43212890625,-13.36669921875
24922.96800675,0.2213134765625,0.298828125,0.7042236328125,74.3408203125,-130.43212890625,-13.36669921875
24922.985155833,0.2213134765625,0.298828125,0.7042236328125,35.0341796875,-130.43212890625,-13.36669921875
24922.98525575,0.2213134765625,0.298828125,0.7042236328125,35.0341796875,-116.943359375,-13.36669921875
24922.985344333,0.2213134765625,0.298828125,0.7042236328125,35.0341796875,-116.943359375,-1.28173828125
24923.002260291,0.0108642578125,0.298828125,0.7042236328125,35.0341796875,-116.943359375,-1.28173828125
24923.002357916,0.0108642578125,0.066162109375,0.7042236328125,35.0341796875,-116.943359375,-1.28173828125
24923.002444,0.0108642578125,0.066162109375,0.3538818359375,35.0341796875,-116.943359375,-1.28173828125
24923.012417958,0.0108642578125,0.066162109375,0.3538818359375,35.0341796875,-106.87255859375,-1.28173828125
24923.018123208,0.0108642578125,0.066162109375,0.3538818359375,35.0341796875,-106.87255859375,5.92041015625
24923.027255208,-0.156005859375,0.066162109375,0.3538818359375,35.0341796875,-106.87255859375,5.92041015625
24923.027484875,-0.156005859375,-0.011474609375,0.3538818359375,35.0341796875,-106.87255859375,5.92041015625
24923.02767975,-0.156005859375,-0.011474609375,0.31201171875,35.0341796875,-106.87255859375,5.92041015625
24923.042274625,-0.156005859375,-0.011474609375,0.31201171875,35.0341796875,-88.56201171875,5.92041015625
24923.042470291,-0.156005859375,-0.011474609375,0.31201171875,35.0341796875,-88.56201171875,10.31494140625
24923.086514791,-0.2576904296875,-0.011474609375,0.31201171875,35.0341796875,-88.56201171875,10.31494140625
24923.102973625,-0.2576904296875,-0.0791015625,0.31201171875,35.0341796875,-88.56201171875,10.31494140625
24923.10311075,-0.2576904296875,-0.0791015625,0.2574462890625,35.0341796875,-88.56201171875,10.31494140625
24923.103225958,-0.2576904296875,-0.0791015625,0.2574462890625,35.0341796875,-70.068359375,10.31494140625
24923.103483791,-0.3414306640625,-0.0791015625,0.2574462890625,35.0341796875,-70.068359375,10.31494140625
24923.134590208,-0.3414306640625,-0.0791015625,0.181396484375,35.0341796875,-70.068359375,10.31494140625
24923.134675,-0.3414306640625,-0.0791015625,0.181396484375,20.20263671875,-70.068359375,10.31494140625
24923.134747291,-0.3414306640625,-0.0791015625,0.181396484375,20.20263671875,-38.6962890625,10.31494140625
24923.151432875,-0.3626708984375,-0.0791015625,0.181396484375,20.20263671875,-38.6962890625,10.31494140625
24923.151519875,-0.3626708984375,-0.2000732421875,0.181396484375,20.20263671875,-38.6962890625,10.31494140625
24923.15159475,-0.3626708984375,-0.2000732421875,0.3160400390625,20.20263671875,-38.6962890625,10.31494140625
24923.192697916,-0.3626708984375,-0.2000732421875,0.3160400390625,20.20263671875,-2.197265625,10.31494140625
24923.192878958,-0.3626708984375,-0.2000732421875,0.3160400390625,20.20263671875,-2.197265625,20.751953125
24923.192972125,-0.2928466796875,-0.2000732421875,0.3160400390625,20.20263671875,-2.197265625,20.751953125
24923.193472625,-0.2928466796875,-0.2000732421875,0.311279296875,20.20263671875,-2.197265625,20.751953125
24923.221485083,-0.2928466796875,-0.2000732421875,0.311279296875,20.20263671875,26.2451171875,20.751953125
24923.2228065,-0.2928466796875,-0.2000732421875,0.311279296875,20.20263671875,26.2451171875,20.01953125
24923.237178583,-0.2498779296875,-0.2000732421875,0.311279296875,20.20263671875,26.2451171875,20.01953125
24923.237403333,-0.2498779296875,-0.1756591796875,0.311279296875,20.20263671875,26.2451171875,20.01953125
24923.237497708,-0.2498779296875,-0.1756591796875,0.4476318359375,20.20263671875,26.2451171875,20.01953125
24923.266088666,-0.19677734375,-0.1756591796875,0.4476318359375,20.20263671875,26.2451171875,20.01953125
24923.282341583,-0.19677734375,-0.174560546875,0.4476318359375,20.20263671875,26.2451171875,20.01953125
24923.282617791,-0.19677734375,-0.174560546875,0.490966796875,20.20263671875,26.2451171875,20.01953125
24923.282708125,-0.19677734375,-0.174560546875,0.490966796875,-21.1181640625,26.2451171875,20.01953125
24923.311172625,-0.128173828125,-0.174560546875,0.490966796875,-21.1181640625,26.2451171875,20.01953125
24923.317938416,-0.128173828125,-0.174560546875,0.6009521484375,-21.1181640625,26.2451171875,20.01953125
24923.318017,-0.128173828125,-0.174560546875,0.6009521484375,-31.06689453125,26.2451171875,20.01953125
24923.318088333,-0.128173828125,-0.174560546875,0.6009521484375,-31.06689453125,64.3310546875,20.01953125
