Timestamp,Accel_X,Accel_Y,Accel_Z,Gyro_X,Gyro_Y,Gyro_Z
21157.1308445,0.096923828125,0.0,0.0,0.0,0.0,0.0
21157.154699958,0.091552734375,0.0,0.0,0.0,0.0,0.0
21157.175233708,0.0841064453125,0.0,0.0,0.0,0.0,0.0
21157.176127916,0.0841064453125,0.00830078125,0.0,0.0,0.0,0.0
21157.189849083,0.0938720703125,0.00830078125,0.0,0.0,0.0,0.0
21157.189883375,0.0938720703125,0.0069580078125,0.0,0.0,0.0,0.0
21157.221075625,0.0955810546875,0.0069580078125,0.0,0.0,0.0,0.0
21157.221206125,0.0955810546875,0.0037841796875,0.0,0.0,0.0,0.0
21157.2212755,0.0955810546875,0.0037841796875,0.9739990234375,0.0,0.0,0.0
21157.235249375,0.0914306640625,0.0037841796875,0.9739990234375,0.0,0.0,0.0
21157.235398541,0.0914306640625,0.005126953125,0.9739990234375,0.0,0.0,0.0
21157.235474208,0.0914306640625,0.005126953125,0.961669921875,0.0,0.0,0.0
21157.265453875,0.08837890625,0.005126953125,0.961669921875,0.0,0.0,0.0
21157.265863,0.08837890625,0.00830078125,0.961669921875,0.0,0.0,0.0
21157.266000833,0.08837890625,0.00830078125,0.96728515625,0.0,0.0,0.0
21157.296189833,0.090087890625,0.00830078125,0.96728515625,0.0,0.0,0.0
21157.296641583,0.090087890625,0.0054931640625,0.96728515625,0.0,0.0,0.0
21157.297129666,0.090087890625,0.0054931640625,0.968017578125,0.0,0.0,0.0
21157.297251791,0.090087890625,0.0054931640625,0.968017578125,3.41796875,0.0,0.0
21157.310124833,0.093994140625,0.0054931640625,0.968017578125,3.41796875,0.0,0.0
21157.310220125,0.093994140625,0.00830078125,0.968017578125,3.41796875,0.0,0.0
21157.325625833,0.093994140625,0.00830078125,0.968017578125,3.84521484375,0.0,0.0
21157.325767375,0.093994140625,0.00830078125,0.968017578125,3.84521484375,-0.6103515625,0.0
21157.375392416,0.084228515625,0.00830078125,0.968017578125,3.84521484375,-0.6103515625,0.0
21157.375519166,0.084228515625,-0.0032958984375,0.968017578125,3.84521484375,-0.6103515625,0.0
21157.375586041,0.084228515625,-0.0032958984375,0.968017578125,3.84521484375,-0.732421875,0.0
21157.404615458,0.084228515625,-0.0032958984375,0.968994140625,3.84521484375,-0.732421875,0.0
21157.404704416,0.084228515625,-0.0032958984375,0.968994140625,1.220703125,-0.732421875,0.0
21157.404776375,0.084228515625,-0.0032958984375,0.968994140625,1.220703125,0.0,0.0
21157.430123,0.0987548828125,-0.0032958984375,0.968994140625,1.220703125,0.0,0.0
21157.4302925,0.0987548828125,0.0052490234375,0.968994140625,1.220703125,0.0,0.0
21157.438126708,0.0987548828125,0.0052490234375,0.976806640625,1.220703125,0.0,0.0
21157.43821475,0.0987548828125,0.0052490234375,0.976806640625,1.220703125,-0.1220703125,0.0
21157.474594708,0.09716796875,0.0052490234375,0.976806640625,1.220703125,-0.1220703125,0.0
21157.504381875,0.09716796875,0.02099609375,0.976806640625,1.220703125,-0.1220703125,0.0
21157.505869666,0.09716796875,0.02099609375,0.9635009765625,1.220703125,-0.1220703125,0.0
21157.506194916,0.09716796875,0.02099609375,0.9635009765625,0.6103515625,-0.1220703125,0.0
21157.506356166,0.0947265625,0.02099609375,0.9635009765625,0.6103515625,-0.1220703125,0.0
21157.521477458,0.0947265625,0.02099609375,0.9697265625,0.6103515625,-0.1220703125,0.0
21157.521580833,0.0947265625,0.02099609375,0.9697265625,1.953125,-0.1220703125,0.0
21157.521671875,0.0947265625,0.02099609375,0.9697265625,1.953125,0.18310546875,0.0
21157.538214541,0.090576171875,0.02099609375,0.9697265625,1.953125,0.18310546875,0.0
21157.538299041,0.090576171875,0.00146484375,0.9697265625,1.953125,0.18310546875,0.0
21157.538367708,0.090576171875,0.00146484375,0.967529296875,1.953125,0.18310546875,0.0
21157.554490833,0.090576171875,0.00146484375,0.967529296875,1.953125,-0.48828125,0.0
21157.554581625,0.090576171875,0.00146484375,0.967529296875,1.953125,-0.48828125,1.220703125
21157.57930825,0.092041015625,0.00146484375,0.967529296875,1.953125,-0.48828125,1.220703125
21157.59540275,0.092041015625,0.0010986328125,0.967529296875,1.953125,-0.48828125,1.220703125
21157.595594083,0.092041015625,0.0010986328125,0.9703369140625,1.953125,-0.48828125,1.220703125
21157.595688833,0.092041015625,0.0010986328125,0.9703369140625,1.953125,-0.48828125,1.220703125
21157.59601875,0.09326171875,0.0010986328125,0.9703369140625,1.953125,-0.48828125,1.220703125
21157.609900083,0.09326171875,0.0010986328125,0.9697265625,1.953125,-0.48828125,1.220703125
21157.610108916,0.09326171875,0.0010986328125,0.9697265625,-0.79345703125,-0.48828125,1.220703125
21157.640150708,0.09326171875,0.0010986328125,0.9697265625,-0.79345703125,0.0,1.220703125
21157.640356166,0.0927734375,0.0010986328125,0.9697265625,-0.79345703125,0.0,1.220703125
21157.640930416,0.0927734375,0.01708984375,0.9697265625,-0.79345703125,0.0,1.220703125
21157.641130416,0.0927734375,0.01708984375,0.9697265625,0.0,0.0,1.220703125
21157.670255375,0.0927734375,0.01708984375,0.9697265625,0.0,0.0,1.0986328125
21157.700607958,0.0904541015625,0.01708984375,0.9697265625,0.0,0.0,1.0986328125
21157.700904125,0.0904541015625,0.0184326171875,0.9697265625,0.0,0.0,1.0986328125
21157.701001416,0.0904541015625,0.0184326171875,0.9666748046875,0.0,0.0,1.0986328125
21157.761110125,0.0904541015625,0.0184326171875,0.9666748046875,0.0,0.0,1.40380859375
21157.761866916,0.0950927734375,0.0184326171875,0.9666748046875,0.0,0.0,1.40380859375
21157.76216025,0.0950927734375,0.0181884765625,0.9666748046875,0.0,0.0,1.40380859375
21157.762289291,0.0950927734375,0.0181884765625,0.96923828125,0.0,0.0,1.40380859375
21157.788387416,0.0950927734375,0.0181884765625,0.96923828125,0.0,-0.79345703125,1.40380859375
21157.788473916,0.0950927734375,0.0181884765625,0.96923828125,0.0,-0.79345703125,1.0986328125
21157.789754291,0.094970703125,0.0181884765625,0.96923828125,0.0,-0.79345703125,1.0986328125
21157.789924666,0.094970703125,0.012939453125,0.96923828125,0.0,-0.79345703125,1.0986328125
21157.791359541,0.094970703125,0.012939453125,0.966552734375,0.0,-0.79345703125,1.0986328125
21157.819745458,0.094970703125,0.012939453125,0.966552734375,0.0,-0.8544921875,1.0986328125
21157.81997175,0.094970703125,0.012939453125,0.966552734375,0.0,-0.8544921875,1.46484375
21157.820714833,0.09423828125,0.012939453125,0.966552734375,0.0,-0.8544921875,1.46484375
21157.820879916,0.09423828125,0.015869140625,0.966552734375,0.0,-0.8544921875,1.46484375
21157.838084416,0.09423828125,0.015869140625,0.966552734375,0.0,-0.91552734375,1.46484375
21157.838164875,0.09423828125,0.015869140625,0.966552734375,0.0,-0.91552734375,1.64794921875
21157.863910416,0.0904541015625,0.015869140625,0.966552734375,0.0,-0.91552734375,1.64794921875
21157.871022791,0.0904541015625,0.02294921875,0.966552734375,0.0,-0.91552734375,1.64794921875
21157.871101791,0.0904541015625,0.02294921875,0.970703125,0.0,-0.91552734375,1.64794921875
21157.8711735,0.0904541015625,0.02294921875,0.970703125,-0.67138671875,-0.91552734375,1.64794921875
21157.880025833,0.091796875,0.02294921875,0.970703125,-0.67138671875,-0.91552734375,1.64794921875
21157.880260333,0.091796875,0.02783203125,0.970703125,-0.67138671875,-0.91552734375,1.64794921875
21157.880376291,0.091796875,0.02783203125,0.9659423828125,-0.67138671875,-0.91552734375,1.64794921875
21157.910566291,0.091796875,0.02783203125,0.9659423828125,-0.67138671875,-0.3662109375,1.64794921875
21157.910707833,0.091796875,0.02783203125,0.9659423828125,-0.67138671875,-0.3662109375,1.220703125
21157.911138375,0.090576171875,0.02783203125,0.9659423828125,-0.67138671875,-0.3662109375,1.220703125
21157.937868375,0.090576171875,0.02783203125,0.9696044921875,-0.67138671875,-0.3662109375,1.220703125
21157.93794175,0.090576171875,0.02783203125,0.9696044921875,0.79345703125,-0.3662109375,1.220703125
21157.938003708,0.090576171875,0.02783203125,0.9696044921875,0.79345703125,-0.79345703125,1.220703125
21157.970314291,0.0872802734375,0.02783203125,0.9696044921875,0.79345703125,-0.79345703125,1.220703125
21157.970479958,0.0872802734375,0.0286865234375,0.9696044921875,0.79345703125,-0.79345703125,1.220703125
21157.97140275,0.0872802734375,0.0286865234375,0.96484375,0.79345703125,-0.79345703125,1.220703125
21157.971568083,0.0872802734375,0.0286865234375,0.96484375,0.79345703125,-0.54931640625,1.220703125
21158.000283291,0.0885009765625,0.0286865234375,0.96484375,0.79345703125,-0.54931640625,1.220703125
21158.000678333,0.0885009765625,0.0257568359375,0.96484375,0.79345703125,-0.54931640625,1.220703125
21158.000751041,0.0885009765625,0.0257568359375,0.971435546875,0.79345703125,-0.54931640625,1.220703125
21158.015070833,0.0885009765625,0.0257568359375,0.971435546875,0.79345703125,-0.54931640625,1.0986328125
21158.037938916,0.08935546875,0.0257568359375,0.971435546875,0.79345703125,-0.54931640625,1.0986328125
21158.038021125,0.08935546875,0.03271484375,0.971435546875,0.79345703125,-0.54931640625,1.0986328125
21158.038090166,0.08935546875,0.03271484375,0.9664306640625,0.79345703125,-0.54931640625,1.0986328125
21158.074138583,0.08935546875,0.03271484375,0.9664306640625,0.79345703125,-0.732421875,1.0986328125
21158.09027075,0.08935546875,0.03271484375,0.9664306640625,0.79345703125,-0.732421875,1.5869140625
21158.104437625,0.0888671875,0.03271484375,0.9664306640625,0.79345703125,-0.732421875,1.5869140625
21158.104520208,0.0888671875,0.02197265625,0.9664306640625,0.79345703125,-0.732421875,1.5869140625
21158.104828833,0.0888671875,0.02197265625,0.9664306640625,0.79345703125,-0.54931640625,1.5869140625
21158.105062,0.0947265625,0.02197265625,0.9664306640625,0.79345703125,-0.54931640625,1.5869140625
21158.105172875,0.0947265625,0.0296630859375,0.9664306640625,0.79345703125,-0.54931640625,1.5869140625
21158.105306125,0.0947265625,0.0296630859375,0.97216796875,0.79345703125,-0.54931640625,1.5869140625
21158.134625041,0.0947265625,0.0296630859375,0.97216796875,0.79345703125,-0.91552734375,1.5869140625
21158.1348155,0.0947265625,0.0296630859375,0.97216796875,0.79345703125,-0.91552734375,1.77001953125
21158.164866875,0.08837890625,0.0296630859375,0.97216796875,0.79345703125,-0.91552734375,1.77001953125
21158.171345875,0.08837890625,0.03125,0.97216796875,0.79345703125,-0.91552734375,1.77001953125
21158.171412916,0.08837890625,0.03125,0.9647216796875,0.79345703125,-0.91552734375,1.77001953125
21158.179876666,0.0889892578125,0.03125,0.9647216796875,0.79345703125,-0.91552734375,1.77001953125
21158.180093791,0.0889892578125,0.0228271484375,0.9647216796875,0.79345703125,-0.91552734375,1.77001953125
21158.180211166,0.0889892578125,0.0228271484375,0.9700927734375,0.79345703125,-0.91552734375,1.77001953125
21158.194963791,0.0889892578125,0.0228271484375,0.9700927734375,0.79345703125,-0.91552734375,1.8310546875
21158.21009825,0.09033203125,0.0228271484375,0.9700927734375,0.79345703125,-0.91552734375,1.8310546875
21158.210323208,0.09033203125,0.03515625,0.9700927734375,0.79345703125,-0.91552734375,1.8310546875
21158.210395541,0.09033203125,0.03515625,0.97412109375,0.79345703125,-0.91552734375,1.8310546875
21158.224970666,0.09033203125,0.03515625,0.97412109375,0.79345703125,-0.8544921875,1.8310546875
21158.225129875,0.09033203125,0.03515625,0.97412109375,0.79345703125,-0.8544921875,1.40380859375
21158.271230833,0.0848388671875,0.03515625,0.97412109375,0.79345703125,-0.8544921875,1.40380859375
21158.275180625,0.0848388671875,0.0289306640625,0.97412109375,0.79345703125,-0.8544921875,1.40380859375
21158.27527225,0.0848388671875,0.0289306640625,0.9632568359375,0.79345703125,-0.8544921875,1.40380859375
21158.3004105,0.0848388671875,0.0289306640625,0.9632568359375,0.91552734375,-0.8544921875,1.40380859375
21158.30473625,0.0859375,0.0289306640625,0.9632568359375,0.91552734375,-0.8544921875,1.40380859375
21158.305039375,0.0859375,0.0233154296875,0.9632568359375,0.91552734375,-0.8544921875,1.40380859375
21158.305129208,0.0859375,0.0233154296875,0.96923828125,0.91552734375,-0.8544921875,1.40380859375
21158.34534325,0.0859375,0.0233154296875,0.96923828125,0.91552734375,-0.18310546875,1.40380859375
21158.345708,0.0859375,0.0233154296875,0.96923828125,0.91552734375,-0.18310546875,1.28173828125
21158.374854166,0.0875244140625,0.0233154296875,0.96923828125,0.91552734375,-0.18310546875,1.28173828125
21158.375029416,0.0875244140625,0.040771484375,0.96923828125,0.91552734375,-0.18310546875,1.28173828125
21158.405015,0.0875244140625,0.040771484375,0.96923828125,0.91552734375,0.244140625,1.28173828125
21158.405220375,0.0875244140625,0.040771484375,0.96923828125,0.91552734375,0.244140625,1.708984375
21158.405812416,0.0875244140625,0.0404052734375,0.96923828125,0.91552734375,0.244140625,1.708984375
21158.405989333,0.0875244140625,0.0404052734375,0.974609375,0.91552734375,0.244140625,1.708984375
21158.435003041,0.0875244140625,0.0404052734375,0.974609375,0.91552734375,1.220703125,1.708984375
21158.43521475,0.0875244140625,0.0404052734375,0.974609375,0.91552734375,1.220703125,1.8310546875
21158.435934625,0.0826416015625,0.0404052734375,0.974609375,0.91552734375,1.220703125,1.8310546875
21158.436189291,0.0826416015625,0.0546875,0.974609375,0.91552734375,1.220703125,1.8310546875
21158.465495291,0.0826416015625,0.0546875,0.974609375,0.91552734375,1.0986328125,1.8310546875
21158.465799791,0.0826416015625,0.0546875,0.974609375,0.91552734375,1.0986328125,1.77001953125
21158.480415625,0.08203125,0.0546875,0.974609375,0.91552734375,1.0986328125,1.77001953125
21158.480679083,0.08203125,0.0699462890625,0.974609375,0.91552734375,1.0986328125,1.77001953125
21158.481036541,0.08203125,0.0699462890625,0.974609375,0.91552734375,2.197265625,1.77001953125
21158.509853958,0.09716796875,0.0699462890625,0.974609375,0.91552734375,2.197265625,1.77001953125
21158.510042125,0.09716796875,0.065673828125,0.974609375,0.91552734375,2.197265625,1.77001953125
21158.510741583,0.09716796875,0.065673828125,0.9749755859375,0.91552734375,2.197265625,1.77001953125
21158.510897083,0.09716796875,0.065673828125,0.9749755859375,0.91552734375,3.173828125,1.77001953125
21158.525007916,0.1009521484375,0.065673828125,0.9749755859375,0.91552734375,3.173828125,1.77001953125
21158.525177041,0.1009521484375,0.048828125,0.9749755859375,0.91552734375,3.173828125,1.77001953125
21158.5703685,0.1009521484375,0.048828125,0.9656982421875,0.91552734375,3.173828125,1.77001953125
21158.570591625,0.1009521484375,0.048828125,0.9656982421875,0.91552734375,3.173828125,1.77001953125
21158.574815416,0.1009521484375,0.048828125,0.9656982421875,0.91552734375,3.173828125,0.91552734375
21158.574910583,0.1083984375,0.048828125,0.9656982421875,0.91552734375,3.173828125,0.91552734375
21158.645227625,0.1083984375,0.048828125,0.9554443359375,0.91552734375,3.173828125,0.91552734375
21158.645491083,0.1083984375,0.048828125,0.9554443359375,-1.220703125,3.173828125,0.91552734375
21158.645989791,0.1083984375,0.048828125,0.9554443359375,-1.220703125,2.01416015625,0.91552734375
21158.646220083,0.112060546875,0.048828125,0.9554443359375,-1.220703125,2.01416015625,0.91552734375
21158.68927975,0.112060546875,0.048828125,1.0054931640625,-1.220703125,2.01416015625,0.91552734375
21158.6907095,0.112060546875,0.048828125,1.0054931640625,-8.1787109375,2.01416015625,0.91552734375
21158.690883291,0.112060546875,0.048828125,1.0054931640625,-8.1787109375,-0.18310546875,0.91552734375
21158.705068916,0.1568603515625,0.048828125,1.0054931640625,-8.1787109375,-0.18310546875,0.91552734375
21158.705278,0.1568603515625,0.048828125,1.00048828125,-8.1787109375,-0.18310546875,0.91552734375
21158.705389166,0.1568603515625,0.048828125,1.00048828125,-43.76220703125,-0.18310546875,0.91552734375
21158.705975125,0.1568603515625,0.048828125,1.00048828125,-43.76220703125,-0.06103515625,0.91552734375
21158.721488041,0.27734375,0.048828125,1.00048828125,-43.76220703125,-0.06103515625,0.91552734375
21158.721571791,0.27734375,0.0728759765625,1.00048828125,-43.76220703125,-0.06103515625,0.91552734375
21158.737740666,0.27734375,0.0728759765625,0.942626953125,-43.76220703125,-0.06103515625,0.91552734375
21158.7378255,0.27734375,0.0728759765625,0.942626953125,-43.76220703125,4.638671875,0.91552734375
21158.737899791,0.27734375,0.0728759765625,0.942626953125,-43.76220703125,4.638671875,-20.5078125
21158.754267625,0.27978515625,0.0728759765625,0.942626953125,-43.76220703125,4.638671875,-20.5078125
21158.754351625,0.27978515625,0.0556640625,0.942626953125,-43.76220703125,4.638671875,-20.5078125
21158.764888666,0.27978515625,0.0556640625,0.947021484375,-43.76220703125,4.638671875,-20.5078125
21158.770911,0.27978515625,0.0556640625,0.947021484375,-43.76220703125,5.43212890625,-20.5078125
21158.771045583,0.27978515625,0.0556640625,0.947021484375,-43.76220703125,5.43212890625,-27.77099609375
21158.780035416,0.297607421875,0.0556640625,0.947021484375,-43.76220703125,5.43212890625,-27.77099609375
21158.780261583,0.297607421875,0.0291748046875,0.947021484375,-43.76220703125,5.43212890625,-27.77099609375
21158.780382833,0.297607421875,0.0291748046875,0.91162109375,-43.76220703125,5.43212890625,-27.77099609375
21158.795088083,0.297607421875,0.0291748046875,0.91162109375,-43.76220703125,3.11279296875,-27.77099609375
21158.795242708,0.297607421875,0.0291748046875,0.91162109375,-43.76220703125,3.11279296875,-39.9169921875
21158.824870208,0.263916015625,0.0291748046875,0.91162109375,-43.76220703125,3.11279296875,-39.9169921875
21158.825024958,0.263916015625,0.158447265625,0.91162109375,-43.76220703125,3.11279296875,-39.9169921875
21158.828658416,0.263916015625,0.158447265625,0.694091796875,-43.76220703125,3.11279296875,-39.9169921875
21158.870445458,0.263916015625,0.158447265625,0.694091796875,-43.76220703125,12.5732421875,-39.9169921875
21158.870696041,0.3043212890625,0.158447265625,0.694091796875,-43.76220703125,12.5732421875,-39.9169921875
21158.899943833,0.3043212890625,0.2354736328125,0.694091796875,-43.76220703125,12.5732421875,-39.9169921875
21158.901493041,0.3043212890625,0.2354736328125,0.806640625,-43.76220703125,12.5732421875,-39.9169921875
21158.901768875,0.3043212890625,0.2354736328125,0.806640625,-43.76220703125,21.17919921875,-39.9169921875
21158.901882375,0.3043212890625,0.2354736328125,0.806640625,-43.76220703125,21.17919921875,-48.583984375
21158.929962166,0.2625732421875,0.2354736328125,0.806640625,-43.76220703125,21.17919921875,-48.583984375
21158.930189375,0.2625732421875,0.3577880859375,0.806640625,-43.76220703125,21.17919921875,-48.583984375
21158.93101,0.2625732421875,0.3577880859375,0.6763916015625,-43.76220703125,21.17919921875,-48.583984375
21158.931190416,0.2625732421875,0.3577880859375,0.6763916015625,-43.76220703125,21.17919921875,-51.57470703125
21158.97449425,0.29345703125,0.3577880859375,0.6763916015625,-43.76220703125,21.17919921875,-51.57470703125
21158.976058791,0.29345703125,0.3905029296875,0.6763916015625,-43.76220703125,21.17919921875,-51.57470703125
21158.976376333,0.29345703125,0.3905029296875,0.6903076171875,-43.76220703125,21.17919921875,-51.57470703125
21158.976497083,0.29345703125,0.3905029296875,0.6903076171875,-43.76220703125,44.98291015625,-51.57470703125
21159.004569041,0.33251953125,0.3905029296875,0.6903076171875,-43.76220703125,44.98291015625,-51.57470703125
21159.004670708,0.33251953125,0.4786376953125,0.6903076171875,-43.76220703125,44.98291015625,-51.57470703125
21159.004746166,0.33251953125,0.4786376953125,0.7030029296875,-43.76220703125,44.98291015625,-51.57470703125
21159.004965375,0.33251953125,0.4786376953125,0.7030029296875,-43.76220703125,44.37255859375,-51.57470703125
21159.005038541,0.33251953125,0.4786376953125,0.7030029296875,-43.76220703125,44.37255859375,-62.68310546875
21159.033928166,0.373291015625,0.4786376953125,0.7030029296875,-43.76220703125,44.37255859375,-62.68310546875
21159.080005875,0.373291015625,0.5107421875,0.7030029296875,-43.76220703125,44.37255859375,-62.68310546875
21159.085156,0.373291015625,0.5107421875,0.5311279296875,-43.76220703125,44.37255859375,-62.68310546875
21159.09525225,0.373291015625,0.5107421875,0.5311279296875,-88.7451171875,44.37255859375,-62.68310546875
21159.09561475,0.44970703125,0.5107421875,0.5311279296875,-88.7451171875,44.37255859375,-62.68310546875
21159.100981458,0.44970703125,0.5107421875,0.603271484375,-88.7451171875,44.37255859375,-62.68310546875
21159.101197666,0.44970703125,0.5107421875,0.603271484375,-103.271484375,44.37255859375,-62.68310546875
21159.124309625,0.44970703125,0.5107421875,0.603271484375,-103.271484375,44.37255859375,-67.9931640625
21159.139843375,0.50634765625,0.5107421875,0.603271484375,-103.271484375,44.37255859375,-67.9931640625
21159.140058625,0.50634765625,0.5753173828125,0.603271484375,-103.271484375,44.37255859375,-67.9931640625
21159.140173166,0.50634765625,0.5753173828125,0.494384765625,-103.271484375,44.37255859375,-67.9931640625
21159.170222541,0.50634765625,0.5753173828125,0.494384765625,-103.271484375,41.44287109375,-67.9931640625
21159.170409791,0.50634765625,0.5753173828125,0.494384765625,-103.271484375,41.44287109375,-70.86181640625
21159.170964458,0.583984375,0.5753173828125,0.494384765625,-103.271484375,41.44287109375,-70.86181640625
21159.200318208,0.583984375,0.5753173828125,0.5643310546875,-103.271484375,41.44287109375,-70.86181640625
21159.245604541,0.583984375,0.5753173828125,0.5643310546875,-93.26171875,41.44287109375,-70.86181640625
21159.246079833,0.583984375,0.5753173828125,0.5643310546875,-93.26171875,40.46630859375,-70.86181640625
21159.246252708,0.6337890625,0.5753173828125,0.5643310546875,-93.26171875,40.46630859375,-70.86181640625
21159.246375333,0.6337890625,0.6219482421875,0.5643310546875,-93.26171875,40.46630859375,-70.86181640625
21159.271141166,0.6337890625,0.6219482421875,0.5643310546875,-59.63134765625,40.46630859375,-70.86181640625
21159.271225666,0.6337890625,0.6219482421875,0.5643310546875,-59.63134765625,33.69140625,-70.86181640625
21159.335666333,0.6337890625,0.6219482421875,0.5643310546875,-59.63134765625,33.69140625,-77.63671875
21159.336155041,0.7010498046875,0.6219482421875,0.5643310546875,-59.63134765625,33.69140625,-77.63671875
21159.336308458,0.7010498046875,0.701416015625,0.5643310546875,-59.63134765625,33.69140625,-77.63671875
21159.336424208,0.7010498046875,0.701416015625,0.5643310546875,-59.63134765625,25.87890625,-77.63671875
21159.355073875,0.6845703125,0.701416015625,0.5643310546875,-59.63134765625,25.87890625,-77.63671875
21159.355182125,0.6845703125,0.635498046875,0.5643310546875,-59.63134765625,25.87890625,-77.63671875
21159.365204958,0.6845703125,0.635498046875,0.3599853515625,-59.63134765625,25.87890625,-77.63671875
21159.395312125,0.6845703125,0.635498046875,0.3599853515625,-59.63134765625,27.4658203125,-77.63671875
21159.3955765,0.6845703125,0.635498046875,0.3599853515625,-59.63134765625,27.4658203125,-47.30224609375
21159.395948125,0.7921142578125,0.635498046875,0.3599853515625,-59.63134765625,27.4658203125,-47.30224609375
21159.396223625,0.7921142578125,0.638671875,0.3599853515625,-59.63134765625,27.4658203125,-47.30224609375
21159.439239625,0.7921142578125,0.638671875,0.3599853515625,-59.63134765625,4.57763671875,-47.30224609375
21159.440627291,0.7921142578125,0.638671875,0.3599853515625,-59.63134765625,4.57763671875,-43.701171875
21159.44081125,0.6719970703125,0.638671875,0.3599853515625,-59.63134765625,4.57763671875,-43.701171875
21159.470323375,0.6719970703125,0.638671875,0.38818359375,-59.63134765625,4.57763671875,-43.701171875
21159.47054375,0.6719970703125,0.638671875,0.38818359375,-87.40234375,4.57763671875,-43.701171875
21159.471714875,0.6719970703125,0.638671875,0.38818359375,-87.40234375,-22.15576171875,-43.701171875
21159.500369291,0.736572265625,0.638671875,0.38818359375,-87.40234375,-22.15576171875,-43.701171875
21159.500643583,0.736572265625,0.79052734375,0.38818359375,-87.40234375,-22.15576171875,-43.701171875
21159.500782125,0.736572265625,0.79052734375,0.6002197265625,-87.40234375,-22.15576171875,-43.701171875
21159.515082875,0.736572265625,0.79052734375,0.6002197265625,-87.40234375,-17.2119140625,-43.701171875
21159.5152905,0.736572265625,0.79052734375,0.6002197265625,-87.40234375,-17.2119140625,-44.5556640625
21159.560065291,0.8494873046875,0.79052734375,0.6002197265625,-87.40234375,-17.2119140625,-44.5556640625
21159.564854291,0.8494873046875,0.726318359375,0.6002197265625,-87.40234375,-17.2119140625,-44.5556640625
21159.564955208,0.8494873046875,0.726318359375,0.603759765625,-87.40234375,-17.2119140625,-44.5556640625
21159.565049333,0.8494873046875,0.726318359375,0.603759765625,-87.40234375,-31.1279296875,-44.5556640625
21159.575102583,0.8494873046875,0.726318359375,0.7271728515625,-87.40234375,-31.1279296875,-44.5556640625
21159.587914416,0.8494873046875,0.726318359375,0.7271728515625,-1.15966796875,-31.1279296875,-44.5556640625
21159.588003541,0.8494873046875,0.726318359375,0.7271728515625,-1.15966796875,-45.71533203125,-44.5556640625
21159.589840333,0.9022216796875,0.726318359375,0.7271728515625,-1.15966796875,-45.71533203125,-44.5556640625
21159.590014208,0.9022216796875,0.77099609375,0.7271728515625,-1.15966796875,-45.71533203125,-44.5556640625
21159.620023666,0.9022216796875,0.77099609375,0.7935791015625,-1.15966796875,-45.71533203125,-44.5556640625
21159.62016775,0.9022216796875,0.77099609375,0.7935791015625,-1.15966796875,-57.12890625,-44.5556640625
21159.620922958,0.9022216796875,0.77099609375,0.7935791015625,-1.15966796875,-57.12890625,-21.484375
21159.621115333,0.938232421875,0.77099609375,0.7935791015625,-1.15966796875,-57.12890625,-21.484375
21159.637754,0.938232421875,0.77099609375,0.7989501953125,-1.15966796875,-57.12890625,-21.484375
21159.637835083,0.938232421875,0.77099609375,0.7989501953125,5.4931640625,-57.12890625,-21.484375
21159.637906166,0.938232421875,0.77099609375,0.7989501953125,5.4931640625,-67.56591796875,-21.484375
21159.665503916,0.9486083984375,0.77099609375,0.7989501953125,5.4931640625,-67.56591796875,-21.484375
21159.67104875,0.9486083984375,0.7987060546875,0.7989501953125,5.4931640625,-67.56591796875,-21.484375
21159.671301958,0.9486083984375,0.7987060546875,0.8623046875,5.4931640625,-67.56591796875,-21.484375
21159.671378333,0.9486083984375,0.7987060546875,0.8623046875,7.87353515625,-67.56591796875,-21.484375
21159.680118708,0.992431640625,0.7987060546875,0.8623046875,7.87353515625,-67.56591796875,-21.484375
21159.680366416,0.992431640625,0.8040771484375,0.8623046875,7.87353515625,-67.56591796875,-21.484375
21159.680493125,0.992431640625,0.8040771484375,0.835693359375,7.87353515625,-67.56591796875,-21.484375
21159.695099208,0.992431640625,0.8040771484375,0.835693359375,7.87353515625,-102.05078125,-21.484375
21159.695292208,0.992431640625,0.8040771484375,0.835693359375,7.87353515625,-102.05078125,23.37646484375
21159.725015458,0.99609375,0.8040771484375,0.835693359375,7.87353515625,-102.05078125,23.37646484375
21159.725219,0.99609375,0.8206787109375,0.835693359375,7.87353515625,-102.05078125,23.37646484375
21159.725794333,0.99609375,0.8206787109375,0.85888671875,7.87353515625,-102.05078125,23.37646484375
21159.770838,0.99609375,0.8206787109375,0.85888671875,7.87353515625,-115.72265625,23.37646484375
21159.771149416,0.99609375,0.8206787109375,0.85888671875,7.87353515625,-115.72265625,42.29736328125
21159.771927416,1.014892578125,0.8206787109375,0.85888671875,7.87353515625,-115.72265625,42.29736328125
21159.772184416,1.014892578125,0.8333740234375,0.85888671875,7.87353515625,-115.72265625,42.29736328125
21159.845974833,1.014892578125,0.8333740234375,0.85888671875,7.87353515625,-129.150390625,42.29736328125
21159.854174041,1.014892578125,0.8333740234375,0.85888671875,7.87353515625,-129.150390625,70.9228515625
21159.854278958,1.0035400390625,0.8333740234375,0.85888671875,7.87353515625,-129.150390625,70.9228515625
21159.854370166,1.0035400390625,0.85595703125,0.85888671875,7.87353515625,-129.150390625,70.9228515625
21159.860131166,1.0035400390625,0.85595703125,0.85888671875,7.87353515625,-145.3857421875,70.9228515625
21159.860337916,1.0035400390625,0.85595703125,0.85888671875,7.87353515625,-145.3857421875,108.58154296875
21159.936496458,0.916259765625,0.85595703125,0.85888671875,7.87353515625,-145.3857421875,108.58154296875
21159.937268958,0.916259765625,0.7119140625,0.85888671875,7.87353515625,-145.3857421875,108.58154296875
21159.9374995,0.916259765625,0.7119140625,0.851318359375,7.87353515625,-145.3857421875,108.58154296875
21159.937758875,0.916259765625,0.7119140625,0.851318359375,7.87353515625,-174.37744140625,108.58154296875
21159.980996541,0.8681640625,0.7119140625,0.851318359375,7.87353515625,-174.37744140625,108.58154296875
21159.982046833,0.8681640625,0.7086181640625,0.851318359375,7.87353515625,-174.37744140625,108.58154296875
21159.982450916,0.8681640625,0.7086181640625,0.8265380859375,7.87353515625,-174.37744140625,108.58154296875
21159.982622041,0.8681640625,0.7086181640625,0.8265380859375,7.87353515625,-200.13427734375,108.58154296875
21160.040021291,0.4044189453125,0.7086181640625,0.8265380859375,7.87353515625,-200.13427734375,108.58154296875
21160.044552708,0.4044189453125,0.3896484375,0.8265380859375,7.87353515625,-200.13427734375,108.58154296875
21160.0446605,0.4044189453125,0.3896484375,0.659423828125,7.87353515625,-200.13427734375,108.58154296875
21160.0447545,0.4044189453125,0.3896484375,0.659423828125,7.87353515625,-188.5986328125,108.58154296875
21160.071371083,0.1341552734375,0.3896484375,0.659423828125,7.87353515625,-188.5986328125,108.58154296875
21160.071463333,0.1341552734375,0.3162841796875,0.659423828125,7.87353515625,-188.5986328125,108.58154296875
21160.071538875,0.1341552734375,0.3162841796875,0.4188232421875,7.87353515625,-188.5986328125,108.58154296875
21160.101099041,0.1341552734375,0.3162841796875,0.4188232421875,7.87353515625,-188.5986328125,160.82763671875
21160.101237916,-0.26904296875,0.3162841796875,0.4188232421875,7.87353515625,-188.5986328125,160.82763671875
21160.102405583,-0.26904296875,-0.226318359375,0.4188232421875,7.87353515625,-188.5986328125,160.82763671875
21160.146122083,-0.26904296875,-0.226318359375,0.4188232421875,108.82568359375,-188.5986328125,160.82763671875
21160.146469208,-0.26904296875,-0.226318359375,0.4188232421875,108.82568359375,-124.45068359375,160.82763671875
21160.205272625,-0.26904296875,-0.226318359375,0.4188232421875,108.82568359375,-124.45068359375,130.31005859375
21160.205491458,-0.26904296875,-0.584716796875,0.4188232421875,108.82568359375,-124.45068359375,130.31005859375
21160.205810166,-0.26904296875,-0.584716796875,0.4188232421875,70.25146484375,-124.45068359375,130.31005859375
21160.238124125,-0.26904296875,-0.584716796875,0.4188232421875,70.25146484375,-124.45068359375,104.43115234375
21160.238213916,-0.26904296875,-0.353271484375,0.4188232421875,70.25146484375,-124.45068359375,104.43115234375
21160.238288291,-0.26904296875,-0.353271484375,-0.054443359375,70.25146484375,-124.45068359375,104.43115234375
21160.238361583,-0.26904296875,-0.353271484375,-0.054443359375,17.333984375,-124.45068359375,104.43115234375
21160.238430833,-0.26904296875,-0.353271484375,-0.054443359375,17.333984375,-124.45068359375,29.1748046875
21160.309436125,-0.373046875,-0.353271484375,-0.054443359375,17.333984375,-124.45068359375,29.1748046875
21160.311516375,-0.373046875,-0.3740234375,-0.054443359375,17.333984375,-124.45068359375,29.1748046875
21160.3115675,-0.373046875,-0.3740234375,-0.08056640625,17.333984375,-124.45068359375,29.1748046875
21160.3116095,-0.373046875,-0.3740234375,-0.08056640625,17.333984375,23.49853515625,29.1748046875
21160.354847583,-0.364990234375,-0.3740234375,-0.08056640625,17.333984375,23.49853515625,29.1748046875
21160.354949,-0.364990234375,-0.2919921875,-0.08056640625,17.333984375,23.49853515625,29.1748046875
21160.355874833,-0.364990234375,-0.2919921875,0.0164794921875,17.333984375,23.49853515625,29.1748046875
21160.355968041,-0.364990234375,-0.2919921875,0.0164794921875,17.333984375,44.25048828125,29.1748046875
21160.369940083,-0.3502197265625,-0.2919921875,0.0164794921875,17.333984375,44.25048828125,29.1748046875
21160.400304125,-0.3502197265625,-0.096435546875,0.0164794921875,17.333984375,44.25048828125,29.1748046875
21160.400385958,-0.3502197265625,-0.096435546875,0.33349609375,17.333984375,44.25048828125,29.1748046875
21160.401013125,-0.3502197265625,-0.096435546875,0.33349609375,17.333984375,94.6044921875,29.1748046875
21160.429263625,-0.2099609375,-0.096435546875,0.33349609375,17.333984375,94.6044921875,29.1748046875
21160.436820166,-0.2099609375,0.0797119140625,0.33349609375,17.333984375,94.6044921875,29.1748046875
21160.436871333,-0.2099609375,0.0797119140625,0.5435791015625,17.333984375,94.6044921875,29.1748046875
21160.520020041,-0.2099609375,0.0797119140625,0.5435791015625,17.333984375,109.31396484375,29.1748046875
21160.536979,-0.2099609375,0.0797119140625,0.5435791015625,17.333984375,109.31396484375,-66.7724609375
21160.537190875,-0.2108154296875,0.0797119140625,0.5435791015625,17.333984375,109.31396484375,-66.7724609375
21160.553997083,-0.2108154296875,0.0797119140625,0.9097900390625,17.333984375,109.31396484375,-66.7724609375
21160.554060833,-0.2108154296875,0.0797119140625,0.9097900390625,17.333984375,114.80712890625,-66.7724609375
21160.554123458,-0.2108154296875,0.0797119140625,0.9097900390625,17.333984375,114.80712890625,-64.39208984375
21160.580094916,-0.0076904296875,0.0797119140625,0.9097900390625,17.333984375,114.80712890625,-64.39208984375
21160.580248166,-0.0076904296875,0.43994140625,0.9097900390625,17.333984375,114.80712890625,-64.39208984375
21160.587280416,-0.0076904296875,0.43994140625,0.9974365234375,17.333984375,114.80712890625,-64.39208984375
21160.594711708,-0.0076904296875,0.43994140625,0.9974365234375,17.333984375,114.80712890625,-60.97412109375
21160.609961166,0.0306396484375,0.43994140625,0.9974365234375,17.333984375,114.80712890625,-60.97412109375
21160.610069125,0.0306396484375,0.4166259765625,0.9974365234375,17.333984375,114.80712890625,-60.97412109375
21160.610126041,0.0306396484375,0.4166259765625,1.0123291015625,17.333984375,114.80712890625,-60.97412109375
21160.639794541,0.0306396484375,0.4166259765625,1.0123291015625,17.333984375,128.0517578125,-60.97412109375
21160.639935541,0.0306396484375,0.4166259765625,1.0123291015625,17.333984375,128.0517578125,-60.791015625
21160.655308375,0.20068359375,0.4166259765625,1.0123291015625,17.333984375,128.0517578125,-60.791015625
21160.6554645,0.20068359375,0.3377685546875,1.0123291015625,17.333984375,128.0517578125,-60.791015625
21160.655547041,0.20068359375,0.3377685546875,1.0123291015625,17.333984375,137.8173828125,-60.791015625
21160.656046166,0.20068359375,0.3377685546875,1.0123291015625,17.333984375,137.8173828125,-53.89404296875
21160.700183083,0.3143310546875,0.3377685546875,1.0123291015625,17.333984375,137.8173828125,-53.89404296875
21160.700332416,0.3143310546875,0.4295654296875,1.0123291015625,17.333984375,137.8173828125,-53.89404296875
21160.730339375,0.3143310546875,0.4295654296875,1.0634765625,17.333984375,137.8173828125,-53.89404296875
21160.730567291,0.3143310546875,0.4295654296875,1.0634765625,-32.28759765625,137.8173828125,-53.89404296875
21160.730682416,0.357421875,0.4295654296875,1.0634765625,-32.28759765625,137.8173828125,-53.89404296875
21160.731081833,0.357421875,0.5330810546875,1.0634765625,-32.28759765625,137.8173828125,-53.89404296875
21160.754057083,0.357421875,0.5330810546875,1.0634765625,-8.85009765625,137.8173828125,-53.89404296875
21160.75991225,0.357421875,0.5330810546875,1.0634765625,-8.85009765625,137.87841796875,-53.89404296875
21160.760068666,0.357421875,0.5330810546875,1.0634765625,-8.85009765625,137.87841796875,-48.76708984375
21160.790271666,0.6102294921875,0.5330810546875,1.0634765625,-8.85009765625,137.87841796875,-48.76708984375
21160.790454875,0.6102294921875,0.5172119140625,1.0634765625,-8.85009765625,137.87841796875,-48.76708984375
21160.790743666,0.6102294921875,0.5172119140625,1.048095703125,-8.85009765625,137.87841796875,-48.76708984375
21160.835046208,0.632080078125,0.5172119140625,1.048095703125,-8.85009765625,137.87841796875,-48.76708984375
21160.835224916,0.632080078125,0.5172119140625,1.18310546875,-8.85009765625,137.87841796875,-48.76708984375
21160.83599375,0.632080078125,0.5172119140625,1.18310546875,4.82177734375,137.87841796875,-48.76708984375
21160.836135875,0.632080078125,0.5172119140625,1.18310546875,4.82177734375,122.6806640625,-48.76708984375
21160.865154166,0.7166748046875,0.5172119140625,1.18310546875,4.82177734375,122.6806640625,-48.76708984375
21160.871241083,0.7166748046875,0.3885498046875,1.18310546875,4.82177734375,122.6806640625,-48.76708984375
21160.871456208,0.7166748046875,0.3885498046875,0.9443359375,4.82177734375,122.6806640625,-48.76708984375
21160.909656208,0.7166748046875,0.3885498046875,0.9443359375,4.82177734375,114.07470703125,-48.76708984375
21160.92138025,0.6685791015625,0.3885498046875,0.9443359375,4.82177734375,114.07470703125,-48.76708984375
21160.924922041,0.6685791015625,0.4278564453125,0.9443359375,4.82177734375,114.07470703125,-48.76708984375
21160.940333625,0.6685791015625,0.4278564453125,0.814208984375,4.82177734375,114.07470703125,-48.76708984375
21160.940533583,0.6685791015625,0.4278564453125,0.814208984375,4.82177734375,94.54345703125,-48.76708984375
21160.940598208,0.6685791015625,0.4278564453125,0.814208984375,4.82177734375,94.54345703125,26.7333984375
21160.941079083,0.6693115234375,0.4278564453125,0.814208984375,4.82177734375,94.54345703125,26.7333984375
21160.954980916,0.6693115234375,0.4278564453125,0.814208984375,-35.70556640625,94.54345703125,26.7333984375
21160.971035291,0.6693115234375,0.4278564453125,0.814208984375,-35.70556640625,70.86181640625,26.7333984375
21160.971106041,0.6693115234375,0.4278564453125,0.814208984375,-35.70556640625,70.86181640625,16.05224609375
21160.971168791,0.6851806640625,0.4278564453125,0.814208984375,-35.70556640625,70.86181640625,16.05224609375
21160.97129925,0.6851806640625,0.343017578125,0.814208984375,-35.70556640625,70.86181640625,16.05224609375
NEW_REP,,,,,,
21160.999422875,0.6851806640625,0.343017578125,0.814208984375,-35.70556640625,60.85205078125,16.05224609375
21161.001260291,0.6851806640625,0.343017578125,0.814208984375,-35.70556640625,60.85205078125,8.23974609375
21161.030137833,0.6480712890625,0.343017578125,0.814208984375,-35.70556640625,60.85205078125,8.23974609375
21161.030328041,0.6480712890625,0.3988037109375,0.814208984375,-35.70556640625,60.85205078125,8.23974609375
21161.030393,0.6480712890625,0.3988037109375,0.74609375,-35.70556640625,60.85205078125,8.23974609375
21161.044972458,0.6480712890625,0.3988037109375,0.74609375,-35.70556640625,60.85205078125,2.50244140625
21161.060141125,0.711669921875,0.3988037109375,0.74609375,-35.70556640625,60.85205078125,2.50244140625
21161.0603,0.711669921875,0.45751953125,0.74609375,-35.70556640625,60.85205078125,2.50244140625
21161.061282166,0.711669921875,0.45751953125,0.7913818359375,-35.70556640625,60.85205078125,2.50244140625
21161.075186875,0.711669921875,0.45751953125,0.7913818359375,-35.70556640625,44.00634765625,2.50244140625
21161.075334375,0.711669921875,0.45751953125,0.7913818359375,-35.70556640625,44.00634765625,-5.9814453125
21161.090060666,0.7188720703125,0.45751953125,0.7913818359375,-35.70556640625,44.00634765625,-5.9814453125
21161.090211375,0.7188720703125,0.5059814453125,0.7913818359375,-35.70556640625,44.00634765625,-5.9814453125
21161.119807541,0.7188720703125,0.5059814453125,0.855224609375,-35.70556640625,44.00634765625,-5.9814453125
21161.121166708,0.7188720703125,0.5059814453125,0.855224609375,-35.70556640625,32.470703125,-5.9814453125
21161.121324083,0.7188720703125,0.5059814453125,0.855224609375,-35.70556640625,32.470703125,-5.79833984375
21161.149863208,0.7166748046875,0.5059814453125,0.855224609375,-35.70556640625,32.470703125,-5.79833984375
21161.14994975,0.7166748046875,0.4727783203125,0.855224609375,-35.70556640625,32.470703125,-5.79833984375
21161.150691666,0.7166748046875,0.4727783203125,0.966064453125,-35.70556640625,32.470703125,-5.79833984375
21161.164939875,0.7166748046875,0.4727783203125,0.966064453125,-35.70556640625,32.470703125,-5.126953125
21161.195022291,0.71044921875,0.4727783203125,0.966064453125,-35.70556640625,32.470703125,-5.126953125
21161.195161333,0.71044921875,0.556884765625,0.966064453125,-35.70556640625,32.470703125,-5.126953125
21161.195806583,0.71044921875,0.556884765625,1.085693359375,-35.70556640625,32.470703125,-5.126953125
21161.195973041,0.71044921875,0.556884765625,1.085693359375,-35.70556640625,-10.55908203125,-5.126953125
21161.239656625,0.7191162109375,0.556884765625,1.085693359375,-35.70556640625,-10.55908203125,-5.126953125
21161.241093791,0.7191162109375,0.438720703125,1.085693359375,-35.70556640625,-10.55908203125,-5.126953125
21161.254915458,0.7191162109375,0.438720703125,1.1939697265625,-35.70556640625,-10.55908203125,-5.126953125
21161.255208083,0.7191162109375,0.438720703125,1.1939697265625,58.89892578125,-10.55908203125,-5.126953125
21161.255318541,0.8043212890625,0.438720703125,1.1939697265625,58.89892578125,-10.55908203125,-5.126953125
21161.3005515,0.8043212890625,0.438720703125,1.2738037109375,58.89892578125,-10.55908203125,-5.126953125
21161.300794916,0.8043212890625,0.438720703125,1.2738037109375,44.49462890625,-10.55908203125,-5.126953125
21161.302249,0.8043212890625,0.438720703125,1.2738037109375,44.49462890625,-69.76318359375,-5.126953125
21161.302437291,0.8380126953125,0.438720703125,1.2738037109375,44.49462890625,-69.76318359375,-5.126953125
21161.36036,0.8380126953125,0.438720703125,1.3253173828125,44.49462890625,-69.76318359375,-5.126953125
21161.3607175,0.8380126953125,0.438720703125,1.3253173828125,41.6259765625,-69.76318359375,-5.126953125
21161.3611875,0.8380126953125,0.438720703125,1.3253173828125,41.6259765625,-103.82080078125,-5.126953125
21161.361434291,0.872802734375,0.438720703125,1.3253173828125,41.6259765625,-103.82080078125,-5.126953125
21161.389722416,0.872802734375,0.438720703125,1.2059326171875,41.6259765625,-103.82080078125,-5.126953125
21161.391411583,0.872802734375,0.438720703125,1.2059326171875,44.43359375,-103.82080078125,-5.126953125
21161.391649041,0.872802734375,0.438720703125,1.2059326171875,44.43359375,-127.25830078125,-5.126953125
21161.391745916,0.8643798828125,0.438720703125,1.2059326171875,44.43359375,-127.25830078125,-5.126953125
21161.480578958,0.8643798828125,0.438720703125,1.0482177734375,44.43359375,-127.25830078125,-5.126953125
21161.480936291,0.8643798828125,0.438720703125,1.0482177734375,40.4052734375,-127.25830078125,-5.126953125
21161.509699625,0.8643798828125,0.438720703125,1.0482177734375,40.4052734375,-155.45654296875,-5.126953125
21161.511145791,0.7996826171875,0.438720703125,1.0482177734375,40.4052734375,-155.45654296875,-5.126953125
21161.511361875,0.7996826171875,0.438720703125,0.9395751953125,40.4052734375,-155.45654296875,-5.126953125
21161.51145575,0.7996826171875,0.438720703125,0.9395751953125,44.12841796875,-155.45654296875,-5.126953125
21161.525225791,0.6298828125,0.438720703125,0.9395751953125,44.12841796875,-155.45654296875,-5.126953125
21161.525455833,0.6298828125,0.61376953125,0.9395751953125,44.12841796875,-155.45654296875,-5.126953125
21161.525538166,0.6298828125,0.61376953125,0.835693359375,44.12841796875,-155.45654296875,-5.126953125
21161.540091291,0.6298828125,0.61376953125,0.835693359375,44.12841796875,-164.73388671875,-5.126953125
21161.540257375,0.6298828125,0.61376953125,0.835693359375,44.12841796875,-164.73388671875,59.326171875
21161.569117666,0.69921875,0.61376953125,0.835693359375,44.12841796875,-164.73388671875,59.326171875
21161.600521291,0.69921875,0.5435791015625,0.835693359375,44.12841796875,-164.73388671875,59.326171875
21161.600748875,0.69921875,0.5435791015625,0.7802734375,44.12841796875,-164.73388671875,59.326171875
21161.602226125,0.69921875,0.5435791015625,0.7802734375,44.12841796875,-185.60791015625,59.326171875
21161.602419208,0.3916015625,0.5435791015625,0.7802734375,44.12841796875,-185.60791015625,59.326171875
21161.630235375,0.3916015625,0.5435791015625,0.5517578125,44.12841796875,-185.60791015625,59.326171875
21161.630455875,0.3916015625,0.5435791015625,0.5517578125,105.28564453125,-185.60791015625,59.326171875
21161.630531541,0.3916015625,0.5435791015625,0.5517578125,105.28564453125,-205.38330078125,59.326171875
21161.64526375,0.00244140625,0.5435791015625,0.5517578125,105.28564453125,-205.38330078125,59.326171875
21161.645444625,0.00244140625,0.085693359375,0.5517578125,105.28564453125,-205.38330078125,59.326171875
21161.64639875,0.00244140625,0.085693359375,0.4139404296875,105.28564453125,-205.38330078125,59.326171875
21161.660214,0.00244140625,0.085693359375,0.4139404296875,105.28564453125,-194.03076171875,59.326171875
21161.674964541,0.00244140625,0.085693359375,0.4139404296875,105.28564453125,-194.03076171875,71.8994140625
21161.705138458,-0.2266845703125,0.085693359375,0.4139404296875,105.28564453125,-194.03076171875,71.8994140625
21161.705368166,-0.2266845703125,-0.048828125,0.4139404296875,105.28564453125,-194.03076171875,71.8994140625
21161.70612675,-0.2266845703125,-0.048828125,0.1707763671875,105.28564453125,-194.03076171875,71.8994140625
21161.706333458,-0.2266845703125,-0.048828125,0.1707763671875,105.28564453125,-159.72900390625,71.8994140625
21161.7806735,-0.5609130859375,-0.048828125,0.1707763671875,105.28564453125,-159.72900390625,71.8994140625
21161.781097333,-0.5609130859375,-0.8057861328125,0.1707763671875,105.28564453125,-159.72900390625,71.8994140625
21161.781262166,-0.5609130859375,-0.8057861328125,-0.3839111328125,105.28564453125,-159.72900390625,71.8994140625
21161.781361375,-0.5609130859375,-0.8057861328125,-0.3839111328125,-12.3291015625,-159.72900390625,71.8994140625
21161.8054975,-0.582275390625,-0.8057861328125,-0.3839111328125,-12.3291015625,-159.72900390625,71.8994140625
21161.805613958,-0.582275390625,-0.3143310546875,-0.3839111328125,-12.3291015625,-159.72900390625,71.8994140625
21161.805709916,-0.582275390625,-0.3143310546875,-0.21484375,-12.3291015625,-159.72900390625,71.8994140625
21161.81027375,-0.582275390625,-0.3143310546875,-0.21484375,-12.3291015625,-159.72900390625,-14.34326171875
21161.84061075,-0.2626953125,-0.3143310546875,-0.21484375,-12.3291015625,-159.72900390625,-14.34326171875
21161.84078175,-0.2626953125,0.0015869140625,-0.21484375,-12.3291015625,-159.72900390625,-14.34326171875
21161.841467083,-0.2626953125,0.0015869140625,0.0247802734375,-12.3291015625,-159.72900390625,-14.34326171875
21161.8416555,-0.2626953125,0.0015869140625,0.0247802734375,1.28173828125,-159.72900390625,-14.34326171875
21161.901154666,-0.226806640625,0.0015869140625,0.0247802734375,1.28173828125,-159.72900390625,-14.34326171875
21161.907543666,-0.226806640625,0.1192626953125,0.0247802734375,1.28173828125,-159.72900390625,-14.34326171875
21161.907726666,-0.226806640625,0.1192626953125,0.23681640625,1.28173828125,-159.72900390625,-14.34326171875
21161.907823458,-0.226806640625,0.1192626953125,0.23681640625,1.28173828125,98.32763671875,-14.34326171875
21161.97540575,-0.2054443359375,0.1192626953125,0.23681640625,1.28173828125,98.32763671875,-14.34326171875
21161.976596791,-0.2054443359375,0.1427001953125,0.23681640625,1.28173828125,98.32763671875,-14.34326171875
21161.976984958,-0.2054443359375,0.1427001953125,0.430908203125,1.28173828125,98.32763671875,-14.34326171875
21161.97713325,-0.2054443359375,0.1427001953125,0.430908203125,1.28173828125,123.35205078125,-14.34326171875
21162.049882666,-0.06005859375,0.1427001953125,0.430908203125,1.28173828125,123.35205078125,-14.34326171875
21162.054970958,-0.06005859375,0.2852783203125,0.430908203125,1.28173828125,123.35205078125,-14.34326171875
21162.11097675,-0.06005859375,0.2852783203125,0.81396484375,1.28173828125,123.35205078125,-14.34326171875
21162.111895041,-0.06005859375,0.2852783203125,0.81396484375,1.28173828125,133.6669921875,-14.34326171875
21162.112196916,0.163818359375,0.2852783203125,0.81396484375,1.28173828125,133.6669921875,-14.34326171875
21162.112311708,0.163818359375,0.3211669921875,0.81396484375,1.28173828125,133.6669921875,-14.34326171875
21162.125435833,0.163818359375,0.3211669921875,0.81396484375,1.28173828125,135.43701171875,-14.34326171875
21162.125667333,0.163818359375,0.3211669921875,0.81396484375,1.28173828125,135.43701171875,-71.044921875
21162.155701833,0.51318359375,0.3211669921875,0.81396484375,1.28173828125,135.43701171875,-71.044921875
21162.157093916,0.51318359375,0.5989990234375,0.81396484375,1.28173828125,135.43701171875,-71.044921875
21162.157397125,0.51318359375,0.5989990234375,1.10107421875,1.28173828125,135.43701171875,-71.044921875
21162.157523416,0.51318359375,0.5989990234375,1.10107421875,-76.416015625,135.43701171875,-71.044921875
21162.172908458,0.3719482421875,0.5989990234375,1.10107421875,-76.416015625,135.43701171875,-71.044921875
21162.173012666,0.3719482421875,0.6136474609375,1.10107421875,-76.416015625,135.43701171875,-71.044921875
21162.173192291,0.3719482421875,0.6136474609375,1.161376953125,-76.416015625,135.43701171875,-71.044921875
21162.230210125,0.3719482421875,0.6136474609375,1.161376953125,-76.416015625,128.173828125,-71.044921875
21162.255511208,0.3719482421875,0.6136474609375,1.161376953125,-76.416015625,128.173828125,-57.18994140625
21162.255604041,0.5205078125,0.6136474609375,1.161376953125,-76.416015625,128.173828125,-57.18994140625
21162.260229083,0.5205078125,0.33740234375,1.161376953125,-76.416015625,128.173828125,-57.18994140625
21162.260495708,0.5205078125,0.33740234375,1.161376953125,-76.416015625,135.43701171875,-57.18994140625
21162.260592,0.5216064453125,0.33740234375,1.161376953125,-76.416015625,135.43701171875,-57.18994140625
21162.261112041,0.5216064453125,0.6126708984375,1.161376953125,-76.416015625,135.43701171875,-57.18994140625
21162.275046833,0.5216064453125,0.6126708984375,1.161376953125,-2.62451171875,135.43701171875,-57.18994140625
21162.275261666,0.5216064453125,0.6126708984375,1.161376953125,-2.62451171875,135.3759765625,-57.18994140625
21162.275376083,0.5216064453125,0.6126708984375,1.161376953125,-2.62451171875,135.3759765625,-35.09521484375
21162.305036708,0.620361328125,0.6126708984375,1.161376953125,-2.62451171875,135.3759765625,-35.09521484375
21162.305256166,0.620361328125,0.367431640625,1.161376953125,-2.62451171875,135.3759765625,-35.09521484375
21162.30582675,0.620361328125,0.367431640625,0.990966796875,-2.62451171875,135.3759765625,-35.09521484375
21162.33494525,0.620361328125,0.367431640625,0.990966796875,-2.62451171875,132.99560546875,-35.09521484375
21162.335205875,0.620361328125,0.367431640625,0.990966796875,-2.62451171875,132.99560546875,-27.587890625
21162.365206291,0.82568359375,0.367431640625,0.990966796875,-2.62451171875,132.99560546875,-27.587890625
21162.365391666,0.82568359375,0.36962890625,0.990966796875,-2.62451171875,132.99560546875,-27.587890625
21162.37222025,0.82568359375,0.36962890625,0.908447265625,-2.62451171875,132.99560546875,-27.587890625
21162.372305875,0.82568359375,0.36962890625,0.908447265625,-2.62451171875,132.99560546875,-31.55517578125
21162.409657,0.7449951171875,0.36962890625,0.908447265625,-2.62451171875,132.99560546875,-31.55517578125
21162.413569791,0.7449951171875,0.4036865234375,0.908447265625,-2.62451171875,132.99560546875,-31.55517578125
21162.413653166,0.7449951171875,0.4036865234375,0.8211669921875,-2.62451171875,132.99560546875,-31.55517578125
21162.413725333,0.7449951171875,0.4036865234375,0.8211669921875,8.4228515625,132.99560546875,-31.55517578125
21162.439874541,0.8154296875,0.4036865234375,0.8211669921875,8.4228515625,132.99560546875,-31.55517578125
21162.441411333,0.8154296875,0.3099365234375,0.8211669921875,8.4228515625,132.99560546875,-31.55517578125
21162.441645833,0.8154296875,0.3099365234375,0.75927734375,8.4228515625,132.99560546875,-31.55517578125
21162.441744583,0.8154296875,0.3099365234375,0.75927734375,8.4228515625,88.07373046875,-31.55517578125
21162.470021583,0.7802734375,0.3099365234375,0.75927734375,8.4228515625,88.07373046875,-31.55517578125
21162.470192208,0.7802734375,0.164306640625,0.75927734375,8.4228515625,88.07373046875,-31.55517578125
21162.471136166,0.7802734375,0.164306640625,0.6856689453125,8.4228515625,88.07373046875,-31.55517578125
21162.47127975,0.7802734375,0.164306640625,0.6856689453125,-5.67626953125,88.07373046875,-31.55517578125
21162.50080775,0.859375,0.164306640625,0.6856689453125,-5.67626953125,88.07373046875,-31.55517578125
21162.501006291,0.859375,0.300048828125,0.6856689453125,-5.67626953125,88.07373046875,-31.55517578125
21162.501480375,0.859375,0.300048828125,0.7125244140625,-5.67626953125,88.07373046875,-31.55517578125
21162.529322833,0.859375,0.300048828125,0.7125244140625,-5.67626953125,51.94091796875,-31.55517578125
21162.55518525,0.859375,0.300048828125,0.7125244140625,-5.67626953125,51.94091796875,-32.77587890625
21162.555261291,0.876708984375,0.300048828125,0.7125244140625,-5.67626953125,51.94091796875,-32.77587890625
21162.555328208,0.876708984375,0.300048828125,0.6414794921875,-5.67626953125,51.94091796875,-32.77587890625
21162.555399708,0.876708984375,0.300048828125,0.6414794921875,-22.216796875,51.94091796875,-32.77587890625
21162.574147125,0.876708984375,0.300048828125,0.6414794921875,-22.216796875,51.94091796875,-34.0576171875
21162.590259458,0.9034423828125,0.300048828125,0.6414794921875,-22.216796875,51.94091796875,-34.0576171875
21162.59035525,0.9034423828125,0.4859619140625,0.6414794921875,-22.216796875,51.94091796875,-34.0576171875
21162.591381791,0.9034423828125,0.4859619140625,0.6312255859375,-22.216796875,51.94091796875,-34.0576171875
21162.605058833,0.9034423828125,0.4859619140625,0.6312255859375,-22.216796875,20.08056640625,-34.0576171875
21162.605215791,0.9034423828125,0.4859619140625,0.6312255859375,-22.216796875,20.08056640625,-13.7939453125
21162.635107541,0.8792724609375,0.4859619140625,0.6312255859375,-22.216796875,20.08056640625,-13.7939453125
21162.63528475,0.8792724609375,0.460693359375,0.6312255859375,-22.216796875,20.08056640625,-13.7939453125
21162.636092958,0.8792724609375,0.460693359375,0.7327880859375,-22.216796875,20.08056640625,-13.7939453125
21162.636235708,0.8792724609375,0.460693359375,0.7327880859375,-22.216796875,6.103515625,-13.7939453125
21162.665400916,0.8360595703125,0.460693359375,0.7327880859375,-22.216796875,6.103515625,-13.7939453125
21162.665582125,0.8360595703125,0.3558349609375,0.7327880859375,-22.216796875,6.103515625,-13.7939453125
21162.665836833,0.8360595703125,0.3558349609375,0.8612060546875,-22.216796875,6.103515625,-13.7939453125
21162.666038166,0.8360595703125,0.3558349609375,0.8612060546875,39.85595703125,6.103515625,-13.7939453125
21162.687941458,0.846923828125,0.3558349609375,0.8612060546875,39.85595703125,6.103515625,-13.7939453125
21162.688013333,0.846923828125,0.33154296875,0.8612060546875,39.85595703125,6.103515625,-13.7939453125
21162.68807375,0.846923828125,0.33154296875,0.952392578125,39.85595703125,6.103515625,-13.7939453125
21162.6950485,0.846923828125,0.33154296875,0.952392578125,39.85595703125,-31.982421875,-13.7939453125
21162.6951735,0.846923828125,0.33154296875,0.952392578125,39.85595703125,-31.982421875,26.55029296875
NEW_REP,,,,,,
21162.740343916,0.88525390625,0.33154296875,0.952392578125,39.85595703125,-31.982421875,26.55029296875
21162.740536875,0.88525390625,0.3109130859375,0.952392578125,39.85595703125,-31.982421875,26.55029296875
21162.740958666,0.88525390625,0.3109130859375,1.09521484375,39.85595703125,-31.982421875,26.55029296875
21162.741141125,0.88525390625,0.3109130859375,1.09521484375,42.48046875,-31.982421875,26.55029296875
21162.755077458,0.8740234375,0.3109130859375,1.09521484375,42.48046875,-31.982421875,26.55029296875
21162.755214958,0.8740234375,0.320556640625,1.09521484375,42.48046875,-31.982421875,26.55029296875
21162.75528275,0.8740234375,0.320556640625,1.1966552734375,42.48046875,-31.982421875,26.55029296875
21162.800754083,0.8740234375,0.320556640625,1.1966552734375,42.48046875,-84.41162109375,26.55029296875
21162.800945625,0.8740234375,0.320556640625,1.1966552734375,42.48046875,-84.41162109375,34.97314453125
21162.802350583,0.935302734375,0.320556640625,1.1966552734375,42.48046875,-84.41162109375,34.97314453125
21162.802500041,0.935302734375,0.3743896484375,1.1966552734375,42.48046875,-84.41162109375,34.97314453125
21162.830265583,0.935302734375,0.3743896484375,1.1966552734375,42.48046875,-113.6474609375,34.97314453125
21162.845153375,0.935302734375,0.3743896484375,1.1966552734375,42.48046875,-113.6474609375,44.00634765625
21162.860368958,1.0096435546875,0.3743896484375,1.1966552734375,42.48046875,-113.6474609375,44.00634765625
21162.860562416,1.0096435546875,0.3743896484375,1.14794921875,42.48046875,-113.6474609375,44.00634765625
21162.860626166,1.0096435546875,0.3743896484375,1.14794921875,77.5146484375,-113.6474609375,44.00634765625
21162.861200625,1.0096435546875,0.3743896484375,1.14794921875,77.5146484375,-113.6474609375,39.85595703125
21162.875128041,0.9481201171875,0.3743896484375,1.14794921875,77.5146484375,-113.6474609375,39.85595703125
21162.875442458,0.9481201171875,0.37890625,1.14794921875,77.5146484375,-113.6474609375,39.85595703125
21162.875514666,0.9481201171875,0.37890625,1.07861328125,77.5146484375,-113.6474609375,39.85595703125
21162.890114,0.9481201171875,0.37890625,1.07861328125,77.5146484375,-180.84716796875,39.85595703125
21162.890303083,0.9481201171875,0.37890625,1.07861328125,77.5146484375,-180.84716796875,43.212890625
21162.90512825,0.8656005859375,0.37890625,1.07861328125,77.5146484375,-180.84716796875,43.212890625
21162.905277791,0.8656005859375,0.410400390625,1.07861328125,77.5146484375,-180.84716796875,43.212890625
21162.905345708,0.8656005859375,0.410400390625,0.968994140625,77.5146484375,-180.84716796875,43.212890625
21162.921430666,0.8656005859375,0.410400390625,0.968994140625,77.5146484375,-185.4248046875,43.212890625
21162.921505125,0.8656005859375,0.410400390625,0.968994140625,77.5146484375,-185.4248046875,46.7529296875
21162.950389625,0.77880859375,0.410400390625,0.968994140625,77.5146484375,-185.4248046875,46.7529296875
21162.950533791,0.77880859375,0.4129638671875,0.968994140625,77.5146484375,-185.4248046875,46.7529296875
21162.95101925,0.77880859375,0.4129638671875,0.9168701171875,77.5146484375,-185.4248046875,46.7529296875
21162.965181666,0.77880859375,0.4129638671875,0.9168701171875,35.400390625,-185.4248046875,46.7529296875
21162.965353041,0.6907958984375,0.4129638671875,0.9168701171875,35.400390625,-185.4248046875,46.7529296875
21162.966794791,0.6907958984375,0.411865234375,0.9168701171875,35.400390625,-185.4248046875,46.7529296875
21162.966930333,0.6907958984375,0.411865234375,0.936279296875,35.400390625,-185.4248046875,46.7529296875
21162.995621583,0.6907958984375,0.411865234375,0.936279296875,35.400390625,-184.26513671875,46.7529296875
21162.995825333,0.6907958984375,0.411865234375,0.936279296875,35.400390625,-184.26513671875,58.4716796875
21162.995936291,0.5843505859375,0.411865234375,0.936279296875,35.400390625,-184.26513671875,58.4716796875
21162.996084583,0.5843505859375,0.3984375,0.936279296875,35.400390625,-184.26513671875,58.4716796875
21163.010674666,0.5843505859375,0.3984375,0.936279296875,35.400390625,-182.06787109375,58.4716796875
21163.010837333,0.5843505859375,0.3984375,0.936279296875,35.400390625,-182.06787109375,68.115234375
21163.054252916,0.424072265625,0.3984375,0.936279296875,35.400390625,-182.06787109375,68.115234375
21163.058793125,0.424072265625,0.3123779296875,0.936279296875,35.400390625,-182.06787109375,68.115234375
21163.058874791,0.424072265625,0.3123779296875,0.93701171875,35.400390625,-182.06787109375,68.115234375
21163.058957958,0.424072265625,0.3123779296875,0.93701171875,35.400390625,-177.18505859375,68.115234375
21163.14458575,0.252197265625,0.3123779296875,0.93701171875,35.400390625,-177.18505859375,68.115234375
21163.149881416,0.252197265625,0.321533203125,0.93701171875,35.400390625,-177.18505859375,68.115234375
21163.149986625,0.252197265625,0.321533203125,1.0693359375,35.400390625,-177.18505859375,68.115234375
21163.150076208,0.252197265625,0.321533203125,1.0693359375,35.400390625,-169.49462890625,68.115234375
21163.174181375,0.2652587890625,0.321533203125,1.0693359375,35.400390625,-169.49462890625,68.115234375
21163.175971625,0.2652587890625,-0.0693359375,1.0693359375,35.400390625,-169.49462890625,68.115234375
21163.176250833,0.2652587890625,-0.0693359375,0.63916015625,35.400390625,-169.49462890625,68.115234375
21163.176342375,0.2652587890625,-0.0693359375,0.63916015625,35.400390625,-187.19482421875,68.115234375
21163.204245166,-0.007080078125,-0.0693359375,0.63916015625,35.400390625,-187.19482421875,68.115234375
21163.2201435,-0.007080078125,0.226318359375,0.63916015625,35.400390625,-187.19482421875,68.115234375
21163.235318666,-0.007080078125,0.226318359375,0.4332275390625,35.400390625,-187.19482421875,68.115234375
21163.235548791,-0.007080078125,0.226318359375,0.4332275390625,35.400390625,-178.7109375,68.115234375
21163.236949333,-0.178955078125,0.226318359375,0.4332275390625,35.400390625,-178.7109375,68.115234375
21163.237164791,-0.178955078125,-0.0093994140625,0.4332275390625,35.400390625,-178.7109375,68.115234375
21163.255818083,-0.178955078125,-0.0093994140625,0.4332275390625,35.400390625,-146.728515625,68.115234375
21163.255905125,-0.178955078125,-0.0093994140625,0.4332275390625,35.400390625,-146.728515625,66.0400390625
21163.279513958,-0.40234375,-0.0093994140625,0.4332275390625,35.400390625,-146.728515625,66.0400390625
21163.32575175,-0.40234375,-0.468994140625,0.4332275390625,35.400390625,-146.728515625,66.0400390625
21163.326561625,-0.40234375,-0.468994140625,-0.291259765625,35.400390625,-146.728515625,66.0400390625
21163.326694291,-0.40234375,-0.468994140625,-0.291259765625,-3.7841796875,-146.728515625,66.0400390625
21163.355430208,-0.50634765625,-0.468994140625,-0.291259765625,-3.7841796875,-146.728515625,66.0400390625
21163.355523166,-0.50634765625,-0.468994140625,-0.243896484375,-3.7841796875,-146.728515625,66.0400390625
21163.355600791,-0.50634765625,-0.468994140625,-0.243896484375,-18.49365234375,-146.728515625,66.0400390625
21163.35567375,-0.50634765625,-0.468994140625,-0.243896484375,-18.49365234375,-56.33544921875,66.0400390625
21163.372358333,-0.4630126953125,-0.468994140625,-0.243896484375,-18.49365234375,-56.33544921875,66.0400390625
21163.372443125,-0.4630126953125,-0.2698974609375,-0.243896484375,-18.49365234375,-56.33544921875,66.0400390625
21163.372517416,-0.4630126953125,-0.2698974609375,-0.18505859375,-18.49365234375,-56.33544921875,66.0400390625
21163.3725895,-0.4630126953125,-0.2698974609375,-0.18505859375,-1.0986328125,-56.33544921875,66.0400390625
21163.40012075,-0.381103515625,-0.2698974609375,-0.18505859375,-1.0986328125,-56.33544921875,66.0400390625
21163.4002825,-0.381103515625,-0.2054443359375,-0.18505859375,-1.0986328125,-56.33544921875,66.0400390625
21163.401016375,-0.381103515625,-0.2054443359375,-0.059326171875,-1.0986328125,-56.33544921875,66.0400390625
21163.43064325,-0.381103515625,-0.2054443359375,-0.059326171875,-1.0986328125,72.998046875,66.0400390625
21163.430909291,-0.381103515625,-0.2054443359375,-0.059326171875,-1.0986328125,72.998046875,-41.9921875
21163.431000375,-0.24853515625,-0.2054443359375,-0.059326171875,-1.0986328125,72.998046875,-41.9921875
21163.455341166,-0.24853515625,-0.2054443359375,0.2403564453125,-1.0986328125,72.998046875,-41.9921875
21163.455425875,-0.24853515625,-0.2054443359375,0.2403564453125,-29.9072265625,72.998046875,-41.9921875
21163.45549975,-0.24853515625,-0.2054443359375,0.2403564453125,-29.9072265625,115.8447265625,-41.9921875
21163.460249791,-0.1727294921875,-0.2054443359375,0.2403564453125,-29.9072265625,115.8447265625,-41.9921875
21163.460488,-0.1727294921875,0.013427734375,0.2403564453125,-29.9072265625,115.8447265625,-41.9921875
21163.46058675,-0.1727294921875,0.013427734375,0.3851318359375,-29.9072265625,115.8447265625,-41.9921875
21163.475228208,-0.1727294921875,0.013427734375,0.3851318359375,-29.9072265625,123.47412109375,-41.9921875
21163.475411458,-0.1727294921875,0.013427734375,0.3851318359375,-29.9072265625,123.47412109375,-72.265625
21163.550610666,-0.130126953125,0.013427734375,0.3851318359375,-29.9072265625,123.47412109375,-72.265625
21163.550959333,-0.130126953125,0.1749267578125,0.3851318359375,-29.9072265625,123.47412109375,-72.265625
21163.581340166,-0.130126953125,0.1749267578125,0.54296875,-29.9072265625,123.47412109375,-72.265625
21163.581889083,-0.130126953125,0.1749267578125,0.54296875,-61.46240234375,123.47412109375,-72.265625
21163.5820495,-0.079345703125,0.1749267578125,0.54296875,-61.46240234375,123.47412109375,-72.265625
21163.582230791,-0.079345703125,0.3797607421875,0.54296875,-61.46240234375,123.47412109375,-72.265625
21163.639405916,-0.079345703125,0.3797607421875,0.54296875,-61.46240234375,137.51220703125,-72.265625
21163.640238041,-0.079345703125,0.3797607421875,0.54296875,-61.46240234375,137.51220703125,-83.31298828125
21163.640393958,0.1026611328125,0.3797607421875,0.54296875,-61.46240234375,137.51220703125,-83.31298828125
21163.641154833,0.1026611328125,0.37109375,0.54296875,-61.46240234375,137.51220703125,-83.31298828125
21163.70067825,0.1026611328125,0.37109375,0.54296875,-61.46240234375,149.35302734375,-83.31298828125
21163.700818291,0.1026611328125,0.37109375,0.54296875,-61.46240234375,149.35302734375,-67.87109375
21163.702173708,0.2406005859375,0.37109375,0.54296875,-61.46240234375,149.35302734375,-67.87109375
21163.70238725,0.2406005859375,0.48291015625,0.54296875,-61.46240234375,149.35302734375,-67.87109375
21163.730478,0.2406005859375,0.48291015625,0.54296875,-61.46240234375,148.25439453125,-67.87109375
21163.730711458,0.2406005859375,0.48291015625,0.54296875,-61.46240234375,148.25439453125,-73.54736328125
21163.730784708,0.3883056640625,0.48291015625,0.54296875,-61.46240234375,148.25439453125,-73.54736328125
21163.745349833,0.3883056640625,0.48291015625,1.0230712890625,-61.46240234375,148.25439453125,-73.54736328125
21163.774732875,0.3883056640625,0.48291015625,1.0230712890625,-48.40087890625,148.25439453125,-73.54736328125
21163.774961208,0.3883056640625,0.48291015625,1.0230712890625,-48.40087890625,130.18798828125,-73.54736328125
21163.775814958,0.41455078125,0.48291015625,1.0230712890625,-48.40087890625,130.18798828125,-73.54736328125
21163.7759665,0.41455078125,0.5447998046875,1.0230712890625,-48.40087890625,130.18798828125,-73.54736328125
21163.790365625,0.41455078125,0.5447998046875,1.0230712890625,-43.15185546875,130.18798828125,-73.54736328125
21163.790604125,0.41455078125,0.5447998046875,1.0230712890625,-43.15185546875,137.0849609375,-73.54736328125
21163.805443333,0.41455078125,0.5447998046875,1.0230712890625,-43.15185546875,137.0849609375,-63.29345703125
21163.805524708,0.662109375,0.5447998046875,1.0230712890625,-43.15185546875,137.0849609375,-63.29345703125
21163.805586583,0.662109375,0.151123046875,1.0230712890625,-43.15185546875,137.0849609375,-63.29345703125
21163.805645875,0.662109375,0.151123046875,0.748046875,-43.15185546875,137.0849609375,-63.29345703125
21163.822275,0.662109375,0.151123046875,0.748046875,-43.15185546875,124.8779296875,-63.29345703125
21163.822355125,0.662109375,0.151123046875,0.748046875,-43.15185546875,124.8779296875,-61.34033203125
21163.83786275,0.714111328125,0.151123046875,0.748046875,-43.15185546875,124.8779296875,-61.34033203125
21163.837926458,0.714111328125,0.29248046875,0.748046875,-43.15185546875,124.8779296875,-61.34033203125
21163.837976833,0.714111328125,0.29248046875,0.7965087890625,-43.15185546875,124.8779296875,-61.34033203125
21163.855299833,0.714111328125,0.29248046875,0.7965087890625,-43.15185546875,115.53955078125,-61.34033203125
21163.855404208,0.714111328125,0.29248046875,0.7965087890625,-43.15185546875,115.53955078125,-73.486328125
21163.880249083,0.7086181640625,0.29248046875,0.7965087890625,-43.15185546875,115.53955078125,-73.486328125
21163.881425541,0.7086181640625,0.649169921875,0.7965087890625,-43.15185546875,115.53955078125,-73.486328125
21163.881576041,0.7086181640625,0.649169921875,0.927734375,-43.15185546875,115.53955078125,-73.486328125
21163.895066333,0.7086181640625,0.649169921875,0.927734375,-93.32275390625,115.53955078125,-73.486328125
21163.910266958,0.7969970703125,0.649169921875,0.927734375,-93.32275390625,115.53955078125,-73.486328125
21163.910509375,0.7969970703125,0.4583740234375,0.927734375,-93.32275390625,115.53955078125,-73.486328125
21163.91063075,0.7969970703125,0.4583740234375,0.76123046875,-93.32275390625,115.53955078125,-73.486328125
21163.925452708,0.7969970703125,0.4583740234375,0.76123046875,-93.32275390625,109.80224609375,-73.486328125
21163.925626375,0.7969970703125,0.4583740234375,0.76123046875,-93.32275390625,109.80224609375,-71.22802734375
21163.955086041,0.84326171875,0.4583740234375,0.76123046875,-93.32275390625,109.80224609375,-71.22802734375
21163.955265,0.84326171875,0.5006103515625,0.76123046875,-93.32275390625,109.80224609375,-71.22802734375
21163.956000708,0.84326171875,0.5006103515625,0.8363037109375,-93.32275390625,109.80224609375,-71.22802734375
21163.956151875,0.84326171875,0.5006103515625,0.8363037109375,-93.32275390625,106.5673828125,-71.22802734375
21163.972007541,0.848388671875,0.5006103515625,0.8363037109375,-93.32275390625,106.5673828125,-71.22802734375
21164.00070975,0.848388671875,0.5828857421875,0.8363037109375,-93.32275390625,106.5673828125,-71.22802734375
21164.000868666,0.848388671875,0.5828857421875,0.7869873046875,-93.32275390625,106.5673828125,-71.22802734375
21164.001330791,0.848388671875,0.5828857421875,0.7869873046875,-93.32275390625,99.91455078125,-71.22802734375
21164.001500583,0.848388671875,0.5828857421875,0.7869873046875,-93.32275390625,99.91455078125,-42.1142578125
21164.029822958,0.884521484375,0.5828857421875,0.7869873046875,-93.32275390625,99.91455078125,-42.1142578125
21164.046703708,0.884521484375,0.329833984375,0.7869873046875,-93.32275390625,99.91455078125,-42.1142578125
21164.046931166,0.884521484375,0.329833984375,0.685791015625,-93.32275390625,99.91455078125,-42.1142578125
21164.047005208,0.884521484375,0.329833984375,0.685791015625,-93.32275390625,99.91455078125,-33.3251953125
21164.135628458,0.888427734375,0.329833984375,0.685791015625,-93.32275390625,99.91455078125,-33.3251953125
21164.135973791,0.888427734375,0.2840576171875,0.685791015625,-93.32275390625,99.91455078125,-33.3251953125
21164.136448583,0.888427734375,0.2840576171875,0.5931396484375,-93.32275390625,99.91455078125,-33.3251953125
21164.136796208,0.888427734375,0.2840576171875,0.5931396484375,21.42333984375,99.91455078125,-33.3251953125
21164.1951055,0.826171875,0.2840576171875,0.5931396484375,21.42333984375,99.91455078125,-33.3251953125
21164.210849791,0.826171875,0.3427734375,0.5931396484375,21.42333984375,99.91455078125,-33.3251953125
21164.211286833,0.826171875,0.3427734375,0.7071533203125,21.42333984375,99.91455078125,-33.3251953125
21164.211407333,0.826171875,0.3427734375,0.7071533203125,21.42333984375,58.837890625,-33.3251953125
21164.2116705,0.93359375,0.3427734375,0.7071533203125,21.42333984375,58.837890625,-33.3251953125
21164.255345,0.93359375,0.3427734375,0.630615234375,21.42333984375,58.837890625,-33.3251953125
21164.255607458,0.93359375,0.3427734375,0.630615234375,40.4052734375,58.837890625,-33.3251953125
21164.27099,0.93359375,0.3427734375,0.630615234375,40.4052734375,25.87890625,-33.3251953125
21164.271049291,0.901611328125,0.3427734375,0.630615234375,40.4052734375,25.87890625,-33.3251953125
21164.271096333,0.901611328125,0.3427734375,0.6505126953125,40.4052734375,25.87890625,-33.3251953125
21164.271143083,0.901611328125,0.3427734375,0.6505126953125,-5.06591796875,25.87890625,-33.3251953125
21164.271397125,0.901611328125,0.3427734375,0.6505126953125,-5.06591796875,-9.09423828125,-33.3251953125
NEW_REP,,,,,,
21164.304853375,0.9332275390625,0.3427734375,0.6505126953125,-5.06591796875,-9.09423828125,-33.3251953125
21164.304929083,0.9332275390625,0.4263916015625,0.6505126953125,-5.06591796875,-9.09423828125,-33.3251953125
21164.304992291,0.9332275390625,0.4263916015625,0.794921875,-5.06591796875,-9.09423828125,-33.3251953125
21164.359540458,0.9332275390625,0.4263916015625,0.794921875,-5.06591796875,-26.2451171875,-33.3251953125
21164.388242541,0.9332275390625,0.4263916015625,0.794921875,-5.06591796875,-26.2451171875,22.94921875
21164.388315875,0.926025390625,0.4263916015625,0.794921875,-5.06591796875,-26.2451171875,22.94921875
21164.3883785,0.926025390625,0.4263916015625,0.82421875,-5.06591796875,-26.2451171875,22.94921875
21164.388439166,0.926025390625,0.4263916015625,0.82421875,40.83251953125,-26.2451171875,22.94921875
21164.405059,0.926025390625,0.4263916015625,0.82421875,40.83251953125,-26.2451171875,38.02490234375
21164.435201291,0.9295654296875,0.4263916015625,0.82421875,40.83251953125,-26.2451171875,38.02490234375
21164.435392708,0.9295654296875,0.4365234375,0.82421875,40.83251953125,-26.2451171875,38.02490234375
21164.436105375,0.9295654296875,0.4365234375,0.9605712890625,40.83251953125,-26.2451171875,38.02490234375
21164.436260833,0.9295654296875,0.4365234375,0.9605712890625,40.83251953125,-102.47802734375,38.02490234375
21164.454910583,0.9404296875,0.4365234375,0.9605712890625,40.83251953125,-102.47802734375,38.02490234375
21164.454986625,0.9404296875,0.4190673828125,0.9605712890625,40.83251953125,-102.47802734375,38.02490234375
21164.455050083,0.9404296875,0.4190673828125,0.9324951171875,40.83251953125,-102.47802734375,38.02490234375
21164.525362458,0.9404296875,0.4190673828125,0.9324951171875,40.83251953125,-119.62890625,38.02490234375
21164.53865825,0.9404296875,0.4190673828125,0.9324951171875,40.83251953125,-119.62890625,64.51416015625
21164.538745458,0.9102783203125,0.4190673828125,0.9324951171875,40.83251953125,-119.62890625,64.51416015625
21164.538819333,0.9102783203125,0.453125,0.9324951171875,40.83251953125,-119.62890625,64.51416015625
21164.600932708,0.9102783203125,0.453125,0.9324951171875,40.83251953125,-132.9345703125,64.51416015625
21164.621736375,0.9102783203125,0.453125,0.9324951171875,40.83251953125,-132.9345703125,68.66455078125
21164.622044083,0.723388671875,0.453125,0.9324951171875,40.83251953125,-132.9345703125,68.66455078125
21164.622118958,0.723388671875,0.4730224609375,0.9324951171875,40.83251953125,-132.9345703125,68.66455078125
21164.645355916,0.723388671875,0.4730224609375,0.9324951171875,40.83251953125,-150.32958984375,68.66455078125
21164.645558,0.723388671875,0.4730224609375,0.9324951171875,40.83251953125,-150.32958984375,73.974609375
21164.645990666,0.5262451171875,0.4730224609375,0.9324951171875,40.83251953125,-150.32958984375,73.974609375
21164.646145958,0.5262451171875,0.4324951171875,0.9324951171875,40.83251953125,-150.32958984375,73.974609375
21164.675382333,0.5262451171875,0.4324951171875,0.9324951171875,40.83251953125,-145.81298828125,73.974609375
21164.688653833,0.5262451171875,0.4324951171875,0.9324951171875,40.83251953125,-145.81298828125,75.439453125
21164.688736416,0.3363037109375,0.4324951171875,0.9324951171875,40.83251953125,-145.81298828125,75.439453125
21164.688808791,0.3363037109375,0.2559814453125,0.9324951171875,40.83251953125,-145.81298828125,75.439453125
21164.690115208,0.3363037109375,0.2559814453125,0.9324951171875,40.83251953125,-131.40869140625,75.439453125
21164.6902575,0.3363037109375,0.2559814453125,0.9324951171875,40.83251953125,-131.40869140625,74.03564453125
21164.719647375,0.380126953125,0.2559814453125,0.9324951171875,40.83251953125,-131.40869140625,74.03564453125
21164.721179916,0.380126953125,0.507568359375,0.9324951171875,40.83251953125,-131.40869140625,74.03564453125
21164.721399625,0.380126953125,0.507568359375,0.9962158203125,40.83251953125,-131.40869140625,74.03564453125
21164.7214955,0.380126953125,0.507568359375,0.9962158203125,40.83251953125,-123.71826171875,74.03564453125
21164.764383041,0.395263671875,0.507568359375,0.9962158203125,40.83251953125,-123.71826171875,74.03564453125
21164.795095458,0.395263671875,0.4605712890625,0.9962158203125,40.83251953125,-123.71826171875,74.03564453125
21164.795304583,0.395263671875,0.4605712890625,0.9259033203125,40.83251953125,-123.71826171875,74.03564453125
21164.810382125,0.395263671875,0.4605712890625,0.9259033203125,40.83251953125,-123.6572265625,74.03564453125
21164.825949833,0.310546875,0.4605712890625,0.9259033203125,40.83251953125,-123.6572265625,74.03564453125
21164.826245958,0.310546875,0.4605712890625,0.7833251953125,40.83251953125,-123.6572265625,74.03564453125
21164.826334458,0.310546875,0.4605712890625,0.7833251953125,32.89794921875,-123.6572265625,74.03564453125
21164.826462791,0.310546875,0.4605712890625,0.7833251953125,32.89794921875,-123.6572265625,72.265625
21164.855396416,0.106689453125,0.4605712890625,0.7833251953125,32.89794921875,-123.6572265625,72.265625
21164.856838708,0.106689453125,0.3836669921875,0.7833251953125,32.89794921875,-123.6572265625,72.265625
21164.857028166,0.106689453125,0.3836669921875,0.60009765625,32.89794921875,-123.6572265625,72.265625
21164.857126958,0.106689453125,0.3836669921875,0.60009765625,14.892578125,-123.6572265625,72.265625
21164.871377875,-0.03076171875,0.3836669921875,0.60009765625,14.892578125,-123.6572265625,72.265625
21164.871440083,-0.03076171875,0.265869140625,0.60009765625,14.892578125,-123.6572265625,72.265625
21164.871493541,-0.03076171875,0.265869140625,0.4583740234375,14.892578125,-123.6572265625,72.265625
21164.90446925,-0.03076171875,0.265869140625,0.4583740234375,14.892578125,-150.7568359375,72.265625
21164.904601583,-0.03076171875,0.265869140625,0.4583740234375,14.892578125,-150.7568359375,102.9052734375
21164.904672958,-0.26611328125,0.265869140625,0.4583740234375,14.892578125,-150.7568359375,102.9052734375
21164.930191458,-0.26611328125,0.265869140625,0.330322265625,14.892578125,-150.7568359375,102.9052734375
21164.930316166,-0.26611328125,0.265869140625,0.330322265625,-1.77001953125,-150.7568359375,102.9052734375
21164.930385,-0.26611328125,0.265869140625,0.330322265625,-1.77001953125,-142.2119140625,102.9052734375
21164.945190291,-0.47265625,0.265869140625,0.330322265625,-1.77001953125,-142.2119140625,102.9052734375
21164.945321666,-0.47265625,-0.3502197265625,0.330322265625,-1.77001953125,-142.2119140625,102.9052734375
21164.945391333,-0.47265625,-0.3502197265625,0.039794921875,-1.77001953125,-142.2119140625,102.9052734375
21164.974693875,-0.47265625,-0.3502197265625,0.039794921875,-1.77001953125,-114.501953125,102.9052734375
21164.974797916,-0.47265625,-0.3502197265625,0.039794921875,-1.77001953125,-114.501953125,81.97021484375
21165.019397666,-0.6336669921875,-0.3502197265625,0.039794921875,-1.77001953125,-114.501953125,81.97021484375
21165.03517075,-0.6336669921875,-0.5106201171875,0.039794921875,-1.77001953125,-114.501953125,81.97021484375
21165.03529075,-0.6336669921875,-0.5106201171875,-0.0369873046875,-1.77001953125,-114.501953125,81.97021484375
21165.110278125,-0.5947265625,-0.5106201171875,-0.0369873046875,-1.77001953125,-114.501953125,81.97021484375
21165.110465083,-0.5947265625,-0.5106201171875,0.0386962890625,-1.77001953125,-114.501953125,81.97021484375
21165.111051125,-0.5947265625,-0.5106201171875,0.0386962890625,-1.77001953125,-34.11865234375,81.97021484375
21165.111248291,-0.4559326171875,-0.5106201171875,0.0386962890625,-1.77001953125,-34.11865234375,81.97021484375
21165.125670166,-0.4559326171875,-0.5106201171875,0.083251953125,-1.77001953125,-34.11865234375,81.97021484375
21165.125862916,-0.4559326171875,-0.5106201171875,0.083251953125,16.11328125,-34.11865234375,81.97021484375
21165.1259265,-0.4559326171875,-0.5106201171875,0.083251953125,16.11328125,40.4052734375,81.97021484375
21165.154188958,-0.2542724609375,-0.5106201171875,0.083251953125,16.11328125,40.4052734375,81.97021484375
21165.155057166,-0.2542724609375,0.1807861328125,0.083251953125,16.11328125,40.4052734375,81.97021484375
21165.155221333,-0.2542724609375,0.1807861328125,0.408935546875,16.11328125,40.4052734375,81.97021484375
21165.170400125,-0.2542724609375,0.1807861328125,0.408935546875,16.11328125,99.67041015625,81.97021484375
21165.170582083,-0.2542724609375,0.1807861328125,0.408935546875,16.11328125,99.67041015625,-78.369140625
21165.199878833,-0.1561279296875,0.1807861328125,0.408935546875,16.11328125,99.67041015625,-78.369140625
21165.201270916,-0.1561279296875,0.2960205078125,0.408935546875,16.11328125,99.67041015625,-78.369140625
21165.201429958,-0.1561279296875,0.2960205078125,0.604248046875,16.11328125,99.67041015625,-78.369140625
21165.230694916,-0.1561279296875,0.2960205078125,0.604248046875,16.11328125,116.14990234375,-78.369140625
21165.230921041,-0.1561279296875,0.2960205078125,0.604248046875,16.11328125,116.14990234375,-77.33154296875
21165.231035166,-0.0433349609375,0.2960205078125,0.604248046875,16.11328125,116.14990234375,-77.33154296875
21165.254954708,-0.0433349609375,0.2960205078125,0.679443359375,16.11328125,116.14990234375,-77.33154296875
21165.255026458,-0.0433349609375,0.2960205078125,0.679443359375,-28.25927734375,116.14990234375,-77.33154296875
21165.255089416,-0.0433349609375,0.2960205078125,0.679443359375,-28.25927734375,116.455078125,-77.33154296875
21165.274768,0.0269775390625,0.2960205078125,0.679443359375,-28.25927734375,116.455078125,-77.33154296875
21165.275793875,0.0269775390625,0.490478515625,0.679443359375,-28.25927734375,116.455078125,-77.33154296875
21165.304252708,0.0269775390625,0.490478515625,0.8389892578125,-28.25927734375,116.455078125,-77.33154296875
21165.320545666,0.0269775390625,0.490478515625,0.8389892578125,-28.25927734375,120.1171875,-77.33154296875
21165.320753541,0.075439453125,0.490478515625,0.8389892578125,-28.25927734375,120.1171875,-77.33154296875
21165.320863208,0.075439453125,0.490478515625,0.8839111328125,-28.25927734375,120.1171875,-77.33154296875
21165.321231416,0.075439453125,0.490478515625,0.8839111328125,-19.1650390625,120.1171875,-77.33154296875
21165.425354791,0.075439453125,0.490478515625,0.8839111328125,-19.1650390625,120.1171875,-82.3974609375
21165.455590458,0.2005615234375,0.490478515625,0.8839111328125,-19.1650390625,120.1171875,-82.3974609375
21165.4559515,0.2005615234375,0.468505859375,0.8839111328125,-19.1650390625,120.1171875,-82.3974609375
21165.456335208,0.2005615234375,0.468505859375,1.0,-19.1650390625,120.1171875,-82.3974609375
21165.45666125,0.2005615234375,0.468505859375,1.0,-19.1650390625,129.82177734375,-82.3974609375
21165.472183416,0.4669189453125,0.468505859375,1.0,-19.1650390625,129.82177734375,-82.3974609375
21165.472284166,0.4669189453125,0.3902587890625,1.0,-19.1650390625,129.82177734375,-82.3974609375
21165.5009505,0.4669189453125,0.3902587890625,1.0064697265625,-19.1650390625,129.82177734375,-82.3974609375
21165.501178041,0.4669189453125,0.3902587890625,1.0064697265625,-19.1650390625,126.5869140625,-82.3974609375
21165.501585208,0.4669189453125,0.3902587890625,1.0064697265625,-19.1650390625,126.5869140625,-65.12451171875
21165.53076975,0.4609375,0.3902587890625,1.0064697265625,-19.1650390625,126.5869140625,-65.12451171875
21165.530995791,0.4609375,0.4825439453125,1.0064697265625,-19.1650390625,126.5869140625,-65.12451171875
21165.531597125,0.4609375,0.4825439453125,1.119140625,-19.1650390625,126.5869140625,-65.12451171875
21165.545253875,0.4609375,0.4825439453125,1.119140625,-19.1650390625,126.5869140625,-57.12890625
21165.605283166,0.623046875,0.4825439453125,1.119140625,-19.1650390625,126.5869140625,-57.12890625
21165.620415833,0.623046875,0.4813232421875,1.119140625,-19.1650390625,126.5869140625,-57.12890625
21165.639787458,0.623046875,0.4813232421875,1.0096435546875,-19.1650390625,126.5869140625,-57.12890625
21165.63989,0.623046875,0.4813232421875,1.0096435546875,-19.1650390625,89.4775390625,-57.12890625
21165.65069375,0.5989990234375,0.4813232421875,1.0096435546875,-19.1650390625,89.4775390625,-57.12890625
21165.656634041,0.5989990234375,0.530517578125,1.0096435546875,-19.1650390625,89.4775390625,-57.12890625
21165.656778583,0.5989990234375,0.530517578125,1.0096435546875,-14.5263671875,89.4775390625,-57.12890625
21165.65686725,0.5989990234375,0.530517578125,1.0096435546875,-14.5263671875,88.5009765625,-57.12890625
21165.67932225,0.7135009765625,0.530517578125,1.0096435546875,-14.5263671875,88.5009765625,-57.12890625
21165.696031458,0.7135009765625,0.491455078125,1.0096435546875,-14.5263671875,88.5009765625,-57.12890625
21165.696243958,0.7135009765625,0.491455078125,0.859375,-14.5263671875,88.5009765625,-57.12890625
21165.69636,0.7135009765625,0.491455078125,0.859375,-23.49853515625,88.5009765625,-57.12890625
21165.696647416,0.69580078125,0.491455078125,0.859375,-23.49853515625,88.5009765625,-57.12890625
21165.710356458,0.69580078125,0.491455078125,0.74609375,-23.49853515625,88.5009765625,-57.12890625
21165.725445,0.69580078125,0.491455078125,0.74609375,0.3662109375,88.5009765625,-57.12890625
21165.725648083,0.69580078125,0.491455078125,0.74609375,0.3662109375,64.75830078125,-57.12890625
21165.740249333,0.753173828125,0.491455078125,0.74609375,0.3662109375,64.75830078125,-57.12890625
21165.755839708,0.753173828125,0.356201171875,0.74609375,0.3662109375,64.75830078125,-57.12890625
21165.755937666,0.753173828125,0.356201171875,0.7105712890625,0.3662109375,64.75830078125,-57.12890625
21165.7560245,0.753173828125,0.356201171875,0.7105712890625,0.3662109375,64.75830078125,-20.20263671875
21165.831468625,0.8021240234375,0.356201171875,0.7105712890625,0.3662109375,64.75830078125,-20.20263671875
21165.83192675,0.8021240234375,0.31298828125,0.7105712890625,0.3662109375,64.75830078125,-20.20263671875
21165.832066916,0.8021240234375,0.31298828125,0.6849365234375,0.3662109375,64.75830078125,-20.20263671875
21165.832251625,0.8021240234375,0.31298828125,0.6849365234375,18.37158203125,64.75830078125,-20.20263671875
21165.856540458,0.7696533203125,0.31298828125,0.6849365234375,18.37158203125,64.75830078125,-20.20263671875
21165.856644458,0.7696533203125,0.3089599609375,0.6849365234375,18.37158203125,64.75830078125,-20.20263671875
21165.856737791,0.7696533203125,0.3089599609375,0.601806640625,18.37158203125,64.75830078125,-20.20263671875
21165.88960725,0.7696533203125,0.3089599609375,0.601806640625,18.37158203125,41.9921875,-20.20263671875
21165.905705083,0.7696533203125,0.3089599609375,0.601806640625,18.37158203125,41.9921875,-15.07568359375
21165.905792166,0.839599609375,0.3089599609375,0.601806640625,18.37158203125,41.9921875,-15.07568359375
21165.90586525,0.839599609375,0.3089599609375,0.548828125,18.37158203125,41.9921875,-15.07568359375
21165.906197,0.839599609375,0.3089599609375,0.548828125,33.99658203125,41.9921875,-15.07568359375
21165.922489875,0.839599609375,0.3089599609375,0.548828125,33.99658203125,41.9921875,8.4228515625
21165.980422875,0.816162109375,0.3089599609375,0.548828125,33.99658203125,41.9921875,8.4228515625
21165.996302875,0.816162109375,0.2138671875,0.548828125,33.99658203125,41.9921875,8.4228515625
21165.996670666,0.816162109375,0.2138671875,0.490966796875,33.99658203125,41.9921875,8.4228515625
21165.996768041,0.816162109375,0.2138671875,0.490966796875,8.36181640625,41.9921875,8.4228515625
21165.996883,0.7958984375,0.2138671875,0.490966796875,8.36181640625,41.9921875,8.4228515625
21166.025379416,0.7958984375,0.2138671875,0.5198974609375,8.36181640625,41.9921875,8.4228515625
21166.02559125,0.7958984375,0.2138671875,0.5198974609375,-9.8876953125,41.9921875,8.4228515625
21166.026143541,0.7958984375,0.2138671875,0.5198974609375,-9.8876953125,10.31494140625,8.4228515625
21166.026387916,0.843994140625,0.2138671875,0.5198974609375,-9.8876953125,10.31494140625,8.4228515625
21166.026482291,0.843994140625,0.3516845703125,0.5198974609375,-9.8876953125,10.31494140625,8.4228515625
21166.040524416,0.843994140625,0.3516845703125,0.5953369140625,-9.8876953125,10.31494140625,8.4228515625
21166.040726291,0.843994140625,0.3516845703125,0.5953369140625,7.32421875,10.31494140625,8.4228515625
21166.040799625,0.843994140625,0.3516845703125,0.5953369140625,7.32421875,12.0849609375,8.4228515625
21166.055084458,0.8673095703125,0.3516845703125,0.5953369140625,7.32421875,12.0849609375,8.4228515625
21166.055211666,0.8673095703125,0.2725830078125,0.5953369140625,7.32421875,12.0849609375,8.4228515625
21166.055280583,0.8673095703125,0.2725830078125,0.604736328125,7.32421875,12.0849609375,8.4228515625
21166.071480916,0.8673095703125,0.2725830078125,0.604736328125,7.32421875,7.26318359375,8.4228515625
21166.071559666,0.8673095703125,0.2725830078125,0.604736328125,7.32421875,7.26318359375,3.662109375
21166.100578333,0.8575439453125,0.2725830078125,0.604736328125,7.32421875,7.26318359375,3.662109375
21166.100787708,0.8575439453125,0.2738037109375,0.604736328125,7.32421875,7.26318359375,3.662109375
21166.100894083,0.8575439453125,0.2738037109375,0.7098388671875,7.32421875,7.26318359375,3.662109375
21166.130547791,0.8575439453125,0.2738037109375,0.7098388671875,7.32421875,-7.87353515625,3.662109375
21166.130725166,0.8575439453125,0.2738037109375,0.7098388671875,7.32421875,-7.87353515625,2.86865234375
NEW_REP,,,,,,
21166.17454925,0.7950439453125,0.2738037109375,0.7098388671875,7.32421875,-7.87353515625,2.86865234375
21166.176131708,0.7950439453125,0.3570556640625,0.7098388671875,7.32421875,-7.87353515625,2.86865234375
21166.176437375,0.7950439453125,0.3570556640625,0.926513671875,7.32421875,-7.87353515625,2.86865234375
21166.176609541,0.7950439453125,0.3570556640625,0.926513671875,7.32421875,-7.87353515625,5.92041015625
21166.190566125,0.828369140625,0.3570556640625,0.926513671875,7.32421875,-7.87353515625,5.92041015625
21166.190832208,0.828369140625,0.36181640625,0.926513671875,7.32421875,-7.87353515625,5.92041015625
21166.190919166,0.828369140625,0.36181640625,1.0391845703125,7.32421875,-7.87353515625,5.92041015625
21166.20576,0.828369140625,0.36181640625,1.0391845703125,7.32421875,-7.87353515625,7.9345703125
21166.234908708,0.8338623046875,0.36181640625,1.0391845703125,7.32421875,-7.87353515625,7.9345703125
21166.235026708,0.8338623046875,0.4884033203125,1.0391845703125,7.32421875,-7.87353515625,7.9345703125
21166.235796708,0.8338623046875,0.4884033203125,1.1766357421875,7.32421875,-7.87353515625,7.9345703125
21166.235938916,0.8338623046875,0.4884033203125,1.1766357421875,7.32421875,-91.30859375,7.9345703125
21166.256290958,0.8795166015625,0.4884033203125,1.1766357421875,7.32421875,-91.30859375,7.9345703125
21166.25639325,0.8795166015625,0.510009765625,1.1766357421875,7.32421875,-91.30859375,7.9345703125
21166.256479375,0.8795166015625,0.510009765625,1.1845703125,7.32421875,-91.30859375,7.9345703125
21166.265337083,0.8795166015625,0.510009765625,1.1845703125,7.32421875,-115.05126953125,7.9345703125
21166.265520375,0.8795166015625,0.510009765625,1.1845703125,7.32421875,-115.05126953125,27.64892578125
21166.309827666,0.912353515625,0.510009765625,1.1845703125,7.32421875,-115.05126953125,27.64892578125
21166.325775791,0.912353515625,0.497802734375,1.1845703125,7.32421875,-115.05126953125,27.64892578125
21166.325979416,0.912353515625,0.497802734375,1.1363525390625,7.32421875,-115.05126953125,27.64892578125
21166.326892083,0.912353515625,0.497802734375,1.1363525390625,7.32421875,-133.36181640625,27.64892578125
21166.32706475,0.9407958984375,0.497802734375,1.1363525390625,7.32421875,-133.36181640625,27.64892578125
21166.34020425,0.9407958984375,0.497802734375,1.1009521484375,7.32421875,-133.36181640625,27.64892578125
21166.34042525,0.9407958984375,0.497802734375,1.1009521484375,34.1796875,-133.36181640625,27.64892578125
21166.356287791,0.9407958984375,0.497802734375,1.1009521484375,34.1796875,-159.24072265625,27.64892578125
21166.372975416,0.9110107421875,0.497802734375,1.1009521484375,34.1796875,-159.24072265625,27.64892578125
21166.373076958,0.9110107421875,0.59765625,1.1009521484375,34.1796875,-159.24072265625,27.64892578125
21166.373169416,0.9110107421875,0.59765625,0.96337890625,34.1796875,-159.24072265625,27.64892578125
21166.400965416,0.9110107421875,0.59765625,0.96337890625,34.1796875,-188.41552734375,27.64892578125
21166.401263041,0.9110107421875,0.59765625,0.96337890625,34.1796875,-188.41552734375,64.14794921875
21166.431261625,0.7889404296875,0.59765625,0.96337890625,34.1796875,-188.41552734375,64.14794921875
21166.431602291,0.7889404296875,0.578857421875,0.96337890625,34.1796875,-188.41552734375,64.14794921875
21166.431808083,0.7889404296875,0.578857421875,0.843994140625,34.1796875,-188.41552734375,64.14794921875
21166.445463875,0.7889404296875,0.578857421875,0.843994140625,34.1796875,-188.41552734375,76.11083984375
21166.475317833,0.519775390625,0.578857421875,0.843994140625,34.1796875,-188.41552734375,76.11083984375
21166.475501,0.519775390625,0.535888671875,0.843994140625,34.1796875,-188.41552734375,76.11083984375
21166.476135458,0.519775390625,0.535888671875,0.743408203125,34.1796875,-188.41552734375,76.11083984375
21166.4763205,0.519775390625,0.535888671875,0.743408203125,34.1796875,-201.0498046875,76.11083984375
21166.551210333,0.310791015625,0.535888671875,0.743408203125,34.1796875,-201.0498046875,76.11083984375
21166.551787916,0.310791015625,0.44482421875,0.743408203125,34.1796875,-201.0498046875,76.11083984375
21166.552010583,0.310791015625,0.44482421875,0.7508544921875,34.1796875,-201.0498046875,76.11083984375
21166.552144416,0.310791015625,0.44482421875,0.7508544921875,29.296875,-201.0498046875,76.11083984375
21166.572986875,0.2093505859375,0.44482421875,0.7508544921875,29.296875,-201.0498046875,76.11083984375
21166.573091041,0.2093505859375,0.404296875,0.7508544921875,29.296875,-201.0498046875,76.11083984375
21166.573180166,0.2093505859375,0.404296875,0.73779296875,29.296875,-201.0498046875,76.11083984375
21166.580642666,0.2093505859375,0.404296875,0.73779296875,29.296875,-176.26953125,76.11083984375
21166.580852,0.2093505859375,0.404296875,0.73779296875,29.296875,-176.26953125,118.408203125
21166.610553375,-0.0810546875,0.404296875,0.73779296875,29.296875,-176.26953125,118.408203125
21166.610785625,-0.0810546875,0.1512451171875,0.73779296875,29.296875,-176.26953125,118.408203125
21166.615762625,-0.0810546875,0.1512451171875,0.6627197265625,29.296875,-176.26953125,118.408203125
21166.615860666,-0.0810546875,0.1512451171875,0.6627197265625,46.93603515625,-176.26953125,118.408203125
21166.640673333,-0.2125244140625,0.1512451171875,0.6627197265625,46.93603515625,-176.26953125,118.408203125
21166.644271125,-0.2125244140625,0.0987548828125,0.6627197265625,46.93603515625,-176.26953125,118.408203125
21166.644475041,-0.2125244140625,0.0987548828125,0.57470703125,46.93603515625,-176.26953125,118.408203125
21166.655496458,-0.2125244140625,0.0987548828125,0.57470703125,36.19384765625,-176.26953125,118.408203125
21166.6726025,-0.331298828125,0.0987548828125,0.57470703125,36.19384765625,-176.26953125,118.408203125
21166.672718708,-0.331298828125,-0.0347900390625,0.57470703125,36.19384765625,-176.26953125,118.408203125
21166.672792791,-0.331298828125,-0.0347900390625,0.3935546875,36.19384765625,-176.26953125,118.408203125
21166.700508166,-0.331298828125,-0.0347900390625,0.3935546875,36.19384765625,-138.61083984375,118.408203125
21166.700774666,-0.331298828125,-0.0347900390625,0.3935546875,36.19384765625,-138.61083984375,114.56298828125
21166.701583,-0.45068359375,-0.0347900390625,0.3935546875,36.19384765625,-138.61083984375,114.56298828125
21166.701756166,-0.45068359375,-0.23291015625,0.3935546875,36.19384765625,-138.61083984375,114.56298828125
21166.730635125,-0.45068359375,-0.23291015625,0.3935546875,36.19384765625,-104.79736328125,114.56298828125
21166.730891083,-0.45068359375,-0.23291015625,0.3935546875,36.19384765625,-104.79736328125,96.19140625
21166.731023208,-0.531982421875,-0.23291015625,0.3935546875,36.19384765625,-104.79736328125,96.19140625
21166.74560975,-0.531982421875,-0.23291015625,-0.0638427734375,36.19384765625,-104.79736328125,96.19140625
21166.760520708,-0.531982421875,-0.23291015625,-0.0638427734375,-1.28173828125,-104.79736328125,96.19140625
21166.760690583,-0.531982421875,-0.23291015625,-0.0638427734375,-1.28173828125,-51.6357421875,96.19140625
21166.761936375,-0.510986328125,-0.23291015625,-0.0638427734375,-1.28173828125,-51.6357421875,96.19140625
21166.762113916,-0.510986328125,-0.2716064453125,-0.0638427734375,-1.28173828125,-51.6357421875,96.19140625
21166.775233708,-0.510986328125,-0.2716064453125,-0.0638427734375,10.92529296875,-51.6357421875,96.19140625
21166.775434875,-0.510986328125,-0.2716064453125,-0.0638427734375,10.92529296875,-5.18798828125,96.19140625
21166.775543791,-0.510986328125,-0.2716064453125,-0.0638427734375,10.92529296875,-5.18798828125,18.310546875
21166.804694333,-0.365234375,-0.2716064453125,-0.0638427734375,10.92529296875,-5.18798828125,18.310546875
21166.8063925,-0.365234375,-0.300048828125,-0.0638427734375,10.92529296875,-5.18798828125,18.310546875
21166.80666875,-0.365234375,-0.300048828125,-0.0289306640625,10.92529296875,-5.18798828125,18.310546875
21166.806808208,-0.365234375,-0.300048828125,-0.0289306640625,19.287109375,-5.18798828125,18.310546875
21166.850743583,-0.2943115234375,-0.300048828125,-0.0289306640625,19.287109375,-5.18798828125,18.310546875
21166.850959583,-0.2943115234375,-0.2412109375,-0.0289306640625,19.287109375,-5.18798828125,18.310546875
21166.893681916,-0.2943115234375,-0.2412109375,0.0576171875,19.287109375,-5.18798828125,18.310546875
21166.906168625,-0.2943115234375,-0.2412109375,0.0576171875,19.287109375,61.6455078125,18.310546875
21166.906353291,-0.3109130859375,-0.2412109375,0.0576171875,19.287109375,61.6455078125,18.310546875
21166.906446958,-0.3109130859375,-0.0511474609375,0.0576171875,19.287109375,61.6455078125,18.310546875
21166.912199458,-0.3109130859375,-0.0511474609375,0.0576171875,-26.91650390625,61.6455078125,18.310546875
21166.912406,-0.3109130859375,-0.0511474609375,0.0576171875,-26.91650390625,90.576171875,18.310546875
21166.912624916,-0.3109130859375,-0.0511474609375,0.0576171875,-26.91650390625,90.576171875,-48.52294921875
21166.925458,-0.2919921875,-0.0511474609375,0.0576171875,-26.91650390625,90.576171875,-48.52294921875
21166.925682041,-0.2919921875,0.0074462890625,0.0576171875,-26.91650390625,90.576171875,-48.52294921875
21166.926231166,-0.2919921875,0.0074462890625,0.5118408203125,-26.91650390625,90.576171875,-48.52294921875
21166.970347041,-0.2919921875,0.0074462890625,0.5118408203125,-26.91650390625,90.576171875,-62.6220703125
21166.970721125,-0.19677734375,0.0074462890625,0.5118408203125,-26.91650390625,90.576171875,-62.6220703125
21166.970818625,-0.19677734375,0.0860595703125,0.5118408203125,-26.91650390625,90.576171875,-62.6220703125
21167.0012055,-0.19677734375,0.0860595703125,0.5118408203125,-35.400390625,90.576171875,-62.6220703125
21167.001569916,-0.19677734375,0.0860595703125,0.5118408203125,-35.400390625,122.25341796875,-62.6220703125
21167.001688541,-0.19677734375,0.0860595703125,0.5118408203125,-35.400390625,122.25341796875,-72.44873046875
21167.0232895,-0.05908203125,0.0860595703125,0.5118408203125,-35.400390625,122.25341796875,-72.44873046875
21167.023394416,-0.05908203125,0.2886962890625,0.5118408203125,-35.400390625,122.25341796875,-72.44873046875
21167.023485416,-0.05908203125,0.2886962890625,0.8135986328125,-35.400390625,122.25341796875,-72.44873046875
21167.030338375,-0.05908203125,0.2886962890625,0.8135986328125,-35.400390625,122.25341796875,-75.68359375
21167.076434833,-0.019287109375,0.2886962890625,0.8135986328125,-35.400390625,122.25341796875,-75.68359375
21167.076880375,-0.019287109375,0.3839111328125,0.8135986328125,-35.400390625,122.25341796875,-75.68359375
21167.077148625,-0.019287109375,0.3839111328125,0.93603515625,-35.400390625,122.25341796875,-75.68359375
21167.077369416,-0.019287109375,0.3839111328125,0.93603515625,-60.791015625,122.25341796875,-75.68359375
21167.105721083,-0.0452880859375,0.3839111328125,0.93603515625,-60.791015625,122.25341796875,-75.68359375
21167.105820291,-0.0452880859375,0.4554443359375,0.93603515625,-60.791015625,122.25341796875,-75.68359375
21167.105896166,-0.0452880859375,0.4554443359375,1.0142822265625,-60.791015625,122.25341796875,-75.68359375
21167.105967791,-0.0452880859375,0.4554443359375,1.0142822265625,-60.791015625,129.57763671875,-75.68359375
21167.106041541,-0.0452880859375,0.4554443359375,1.0142822265625,-60.791015625,129.57763671875,-70.556640625
21167.122334541,0.1959228515625,0.4554443359375,1.0142822265625,-60.791015625,129.57763671875,-70.556640625
21167.122414083,0.1959228515625,0.3453369140625,1.0142822265625,-60.791015625,129.57763671875,-70.556640625
21167.122487083,0.1959228515625,0.3453369140625,0.922607421875,-60.791015625,129.57763671875,-70.556640625
21167.164567041,0.1959228515625,0.3453369140625,0.922607421875,-60.791015625,133.6669921875,-70.556640625
21167.1807055,0.1959228515625,0.3453369140625,0.922607421875,-60.791015625,133.6669921875,-61.21826171875
21167.180982166,0.169189453125,0.3453369140625,0.922607421875,-60.791015625,133.6669921875,-61.21826171875
21167.181168416,0.169189453125,0.3994140625,0.922607421875,-60.791015625,133.6669921875,-61.21826171875
21167.181399,0.169189453125,0.3994140625,0.922607421875,-60.791015625,129.82177734375,-61.21826171875
21167.224705583,0.26708984375,0.3994140625,0.922607421875,-60.791015625,129.82177734375,-61.21826171875
21167.240640833,0.26708984375,0.4385986328125,0.922607421875,-60.791015625,129.82177734375,-61.21826171875
21167.240921125,0.26708984375,0.4385986328125,1.014892578125,-60.791015625,129.82177734375,-61.21826171875
21167.241055458,0.26708984375,0.4385986328125,1.014892578125,-15.5029296875,129.82177734375,-61.21826171875
21167.241311708,0.354736328125,0.4385986328125,1.014892578125,-15.5029296875,129.82177734375,-61.21826171875
21167.270875958,0.354736328125,0.4385986328125,0.962890625,-15.5029296875,129.82177734375,-61.21826171875
21167.272855291,0.354736328125,0.4385986328125,0.962890625,-8.11767578125,129.82177734375,-61.21826171875
21167.273032333,0.354736328125,0.4385986328125,0.962890625,-8.11767578125,136.71875,-61.21826171875
21167.300839291,0.468505859375,0.4385986328125,0.962890625,-8.11767578125,136.71875,-61.21826171875
21167.301057625,0.468505859375,0.417236328125,0.962890625,-8.11767578125,136.71875,-61.21826171875
21167.301150208,0.468505859375,0.417236328125,1.077880859375,-8.11767578125,136.71875,-61.21826171875
21167.330080958,0.468505859375,0.417236328125,1.077880859375,-8.11767578125,134.82666015625,-61.21826171875
21167.331128333,0.468505859375,0.417236328125,1.077880859375,-8.11767578125,134.82666015625,-55.23681640625
21167.375581916,0.564453125,0.417236328125,1.077880859375,-8.11767578125,134.82666015625,-55.23681640625
21167.375799875,0.564453125,0.4761962890625,1.077880859375,-8.11767578125,134.82666015625,-55.23681640625
21167.37609475,0.564453125,0.4761962890625,1.068603515625,-8.11767578125,134.82666015625,-55.23681640625
21167.376266083,0.564453125,0.4761962890625,1.068603515625,-8.11767578125,134.82666015625,-39.6728515625
21167.390481166,0.759765625,0.4761962890625,1.068603515625,-8.11767578125,134.82666015625,-39.6728515625
21167.390753833,0.759765625,0.4344482421875,1.068603515625,-8.11767578125,134.82666015625,-39.6728515625
21167.390844875,0.759765625,0.4344482421875,0.8909912109375,-8.11767578125,134.82666015625,-39.6728515625
21167.419326,0.759765625,0.4344482421875,0.8909912109375,-8.11767578125,134.82666015625,-23.3154296875
21167.435243958,0.8380126953125,0.4344482421875,0.8909912109375,-8.11767578125,134.82666015625,-23.3154296875
21167.43553625,0.8380126953125,0.4390869140625,0.8909912109375,-8.11767578125,134.82666015625,-23.3154296875
21167.435631041,0.8380126953125,0.4390869140625,0.77392578125,-8.11767578125,134.82666015625,-23.3154296875
21167.450229,0.8380126953125,0.4390869140625,0.77392578125,-8.11767578125,134.82666015625,-3.41796875
21167.510021625,0.83154296875,0.4390869140625,0.77392578125,-8.11767578125,134.82666015625,-3.41796875
21167.52568525,0.83154296875,0.173095703125,0.77392578125,-8.11767578125,134.82666015625,-3.41796875
21167.525954875,0.83154296875,0.173095703125,0.541748046875,-8.11767578125,134.82666015625,-3.41796875
21167.526047541,0.83154296875,0.173095703125,0.541748046875,30.33447265625,134.82666015625,-3.41796875
21167.526372791,0.8172607421875,0.173095703125,0.541748046875,30.33447265625,134.82666015625,-3.41796875
21167.540403166,0.8172607421875,0.173095703125,0.517578125,30.33447265625,134.82666015625,-3.41796875
21167.540611125,0.8172607421875,0.173095703125,0.517578125,-18.85986328125,134.82666015625,-3.41796875
21167.601686291,0.8172607421875,0.173095703125,0.517578125,-18.85986328125,57.67822265625,-3.41796875
21167.622120333,0.8177490234375,0.173095703125,0.517578125,-18.85986328125,57.67822265625,-3.41796875
21167.622356583,0.8177490234375,0.2757568359375,0.517578125,-18.85986328125,57.67822265625,-3.41796875
21167.622430125,0.8177490234375,0.2757568359375,0.50634765625,-18.85986328125,57.67822265625,-3.41796875
21167.622505,0.8177490234375,0.2757568359375,0.50634765625,-18.85986328125,47.66845703125,-3.41796875
21167.622577708,0.8177490234375,0.2757568359375,0.50634765625,-18.85986328125,47.66845703125,-9.521484375
21167.691167916,0.861083984375,0.2757568359375,0.50634765625,-18.85986328125,47.66845703125,-9.521484375
21167.691596833,0.861083984375,0.276123046875,0.50634765625,-18.85986328125,47.66845703125,-9.521484375
21167.691778333,0.861083984375,0.276123046875,0.575439453125,-18.85986328125,47.66845703125,-9.521484375
21167.691895541,0.861083984375,0.276123046875,0.575439453125,7.62939453125,47.66845703125,-9.521484375
21167.70606175,0.8236083984375,0.276123046875,0.575439453125,7.62939453125,47.66845703125,-9.521484375
21167.706170625,0.8236083984375,0.1932373046875,0.575439453125,7.62939453125,47.66845703125,-9.521484375
21167.735189916,0.8236083984375,0.1932373046875,0.6392822265625,7.62939453125,47.66845703125,-9.521484375
21167.735403166,0.8236083984375,0.1932373046875,0.6392822265625,7.62939453125,36.43798828125,-9.521484375
21167.736175625,0.8236083984375,0.1932373046875,0.6392822265625,7.62939453125,36.43798828125,5.126953125
21167.736353041,0.840576171875,0.1932373046875,0.6392822265625,7.62939453125,36.43798828125,5.126953125
NEW_REP,,,,,,
21167.765326,0.840576171875,0.4073486328125,0.6392822265625,7.62939453125,36.43798828125,5.126953125
21167.76554875,0.840576171875,0.4073486328125,0.9803466796875,7.62939453125,36.43798828125,5.126953125
21167.766107791,0.840576171875,0.4073486328125,0.9803466796875,-14.16015625,36.43798828125,5.126953125
21167.76630175,0.840576171875,0.4073486328125,0.9803466796875,-14.16015625,36.43798828125,1.28173828125
21167.795511916,0.85888671875,0.4073486328125,0.9803466796875,-14.16015625,36.43798828125,1.28173828125
21167.800272041,0.85888671875,0.3900146484375,0.9803466796875,-14.16015625,36.43798828125,1.28173828125
21167.800371041,0.85888671875,0.3900146484375,1.0008544921875,-14.16015625,36.43798828125,1.28173828125
21167.800457416,0.85888671875,0.3900146484375,1.0008544921875,6.77490234375,36.43798828125,1.28173828125
21167.824152041,0.926513671875,0.3900146484375,1.0008544921875,6.77490234375,36.43798828125,1.28173828125
21167.826137375,0.926513671875,0.35693359375,1.0008544921875,6.77490234375,36.43798828125,1.28173828125
21167.826402666,0.926513671875,0.35693359375,1.006591796875,6.77490234375,36.43798828125,1.28173828125
21167.82649025,0.926513671875,0.35693359375,1.006591796875,6.77490234375,-57.55615234375,1.28173828125
21167.840626166,0.9342041015625,0.35693359375,1.006591796875,6.77490234375,-57.55615234375,1.28173828125
21167.840719,0.9342041015625,0.4326171875,1.006591796875,6.77490234375,-57.55615234375,1.28173828125
21167.840904083,0.9342041015625,0.4326171875,1.0369873046875,6.77490234375,-57.55615234375,1.28173828125
21167.87041175,0.9342041015625,0.4326171875,1.0369873046875,6.77490234375,-88.31787109375,1.28173828125
21167.870621375,0.9342041015625,0.4326171875,1.0369873046875,6.77490234375,-88.31787109375,17.333984375
21167.871254708,0.936767578125,0.4326171875,1.0369873046875,6.77490234375,-88.31787109375,17.333984375
21167.915753625,0.936767578125,0.4326171875,1.044921875,6.77490234375,-88.31787109375,17.333984375
21167.91599775,0.936767578125,0.4326171875,1.044921875,22.88818359375,-88.31787109375,17.333984375
21167.916118958,0.936767578125,0.4326171875,1.044921875,22.88818359375,-107.421875,17.333984375
21167.916327125,0.9375,0.4326171875,1.044921875,22.88818359375,-107.421875,17.333984375
21167.938929708,0.9375,0.4326171875,1.00048828125,22.88818359375,-107.421875,17.333984375
21167.9390215,0.9375,0.4326171875,1.00048828125,39.794921875,-107.421875,17.333984375
21167.939095541,0.9375,0.4326171875,1.00048828125,39.794921875,-132.50732421875,17.333984375
21167.975924791,0.9329833984375,0.4326171875,1.00048828125,39.794921875,-132.50732421875,17.333984375
21167.976173375,0.9329833984375,0.507568359375,1.00048828125,39.794921875,-132.50732421875,17.333984375
21167.976583791,0.9329833984375,0.507568359375,1.0006103515625,39.794921875,-132.50732421875,17.333984375
21167.976780791,0.9329833984375,0.507568359375,1.0006103515625,28.25927734375,-132.50732421875,17.333984375
21167.990300875,0.920166015625,0.507568359375,1.0006103515625,28.25927734375,-132.50732421875,17.333984375
21167.990525708,0.920166015625,0.59228515625,1.0006103515625,28.25927734375,-132.50732421875,17.333984375
21167.990600541,0.920166015625,0.59228515625,0.984130859375,28.25927734375,-132.50732421875,17.333984375
21168.034587083,0.920166015625,0.59228515625,0.984130859375,28.25927734375,-176.20849609375,17.333984375
21168.055525666,0.920166015625,0.59228515625,0.984130859375,28.25927734375,-176.20849609375,54.62646484375
21168.055610333,0.8404541015625,0.59228515625,0.984130859375,28.25927734375,-176.20849609375,54.62646484375
21168.055682916,0.8404541015625,0.577880859375,0.984130859375,28.25927734375,-176.20849609375,54.62646484375
21168.05576225,0.8404541015625,0.577880859375,0.984130859375,28.25927734375,-191.650390625,54.62646484375
21168.065840041,0.7364501953125,0.577880859375,0.984130859375,28.25927734375,-191.650390625,54.62646484375
21168.072563583,0.7364501953125,0.7215576171875,0.984130859375,28.25927734375,-191.650390625,54.62646484375
21168.072706666,0.7364501953125,0.7215576171875,0.8924560546875,28.25927734375,-191.650390625,54.62646484375
21168.080341791,0.7364501953125,0.7215576171875,0.8924560546875,28.25927734375,-214.84375,54.62646484375
21168.08052475,0.7364501953125,0.7215576171875,0.8924560546875,28.25927734375,-214.84375,101.9287109375
21168.109670625,0.5595703125,0.7215576171875,0.8924560546875,28.25927734375,-214.84375,101.9287109375
21168.154677,0.5595703125,0.458740234375,0.8924560546875,28.25927734375,-214.84375,101.9287109375
21168.155229791,0.5595703125,0.458740234375,0.7978515625,28.25927734375,-214.84375,101.9287109375
21168.156852583,0.5595703125,0.458740234375,0.7978515625,28.25927734375,-210.14404296875,101.9287109375
21168.157067208,0.5595703125,0.458740234375,0.7978515625,28.25927734375,-210.14404296875,107.36083984375
21168.201253291,0.5595703125,0.123779296875,0.7978515625,28.25927734375,-210.14404296875,107.36083984375
21168.201633125,0.5595703125,0.123779296875,0.6932373046875,28.25927734375,-210.14404296875,107.36083984375
21168.201739166,0.5595703125,0.123779296875,0.6932373046875,83.31298828125,-210.14404296875,107.36083984375
21168.201888125,0.5595703125,0.123779296875,0.6932373046875,83.31298828125,-210.14404296875,96.6796875
21168.230602291,-0.25,0.123779296875,0.6932373046875,83.31298828125,-210.14404296875,96.6796875
21168.230812958,-0.25,0.0294189453125,0.6932373046875,83.31298828125,-210.14404296875,96.6796875
21168.231307541,-0.25,0.0294189453125,0.623779296875,83.31298828125,-210.14404296875,96.6796875
21168.231489166,-0.25,0.0294189453125,0.623779296875,43.9453125,-210.14404296875,96.6796875
21168.245388583,-0.34814453125,0.0294189453125,0.623779296875,43.9453125,-210.14404296875,96.6796875
21168.245652958,-0.34814453125,-0.0498046875,0.623779296875,43.9453125,-210.14404296875,96.6796875
21168.245787791,-0.34814453125,-0.0498046875,0.5054931640625,43.9453125,-210.14404296875,96.6796875
21168.260392875,-0.34814453125,-0.0498046875,0.5054931640625,43.9453125,-148.62060546875,96.6796875
21168.260548916,-0.34814453125,-0.0498046875,0.5054931640625,43.9453125,-148.62060546875,62.255859375
21168.275567166,-0.4112548828125,-0.0498046875,0.5054931640625,43.9453125,-148.62060546875,62.255859375
21168.275804458,-0.4112548828125,-0.056396484375,0.5054931640625,43.9453125,-148.62060546875,62.255859375
21168.275924375,-0.4112548828125,-0.056396484375,0.4290771484375,43.9453125,-148.62060546875,62.255859375
21168.305147041,-0.4112548828125,-0.056396484375,0.4290771484375,43.9453125,-132.568359375,62.255859375
21168.3053375,-0.4112548828125,-0.056396484375,0.4290771484375,43.9453125,-132.568359375,55.35888671875
21168.305969208,-0.472900390625,-0.056396484375,0.4290771484375,43.9453125,-132.568359375,55.35888671875
21168.322642166,-0.472900390625,-0.056396484375,0.2618408203125,43.9453125,-132.568359375,55.35888671875
21168.32272625,-0.472900390625,-0.056396484375,0.2618408203125,45.34912109375,-132.568359375,55.35888671875
21168.339401666,-0.472900390625,-0.056396484375,0.2618408203125,45.34912109375,-107.84912109375,55.35888671875
21168.3555885,-0.500244140625,-0.056396484375,0.2618408203125,45.34912109375,-107.84912109375,55.35888671875
21168.35567075,-0.500244140625,-0.2308349609375,0.2618408203125,45.34912109375,-107.84912109375,55.35888671875
21168.355742791,-0.500244140625,-0.2308349609375,0.129638671875,45.34912109375,-107.84912109375,55.35888671875
21168.365644541,-0.500244140625,-0.2308349609375,0.129638671875,45.34912109375,-73.974609375,55.35888671875
21168.371705125,-0.500244140625,-0.2308349609375,0.129638671875,45.34912109375,-73.974609375,26.42822265625
21168.395428666,-0.3656005859375,-0.2308349609375,0.129638671875,45.34912109375,-73.974609375,26.42822265625
21168.395607375,-0.3656005859375,-0.199951171875,0.129638671875,45.34912109375,-73.974609375,26.42822265625
21168.396094583,-0.3656005859375,-0.199951171875,0.00341796875,45.34912109375,-73.974609375,26.42822265625
21168.39624025,-0.3656005859375,-0.199951171875,0.00341796875,33.02001953125,-73.974609375,26.42822265625
21168.410593791,-0.32568359375,-0.199951171875,0.00341796875,33.02001953125,-73.974609375,26.42822265625
21168.4107755,-0.32568359375,-0.1676025390625,0.00341796875,33.02001953125,-73.974609375,26.42822265625
21168.410856166,-0.32568359375,-0.1676025390625,0.0477294921875,33.02001953125,-73.974609375,26.42822265625
21168.425218708,-0.32568359375,-0.1676025390625,0.0477294921875,33.02001953125,5.2490234375,26.42822265625
21168.425382,-0.32568359375,-0.1676025390625,0.0477294921875,33.02001953125,5.2490234375,-5.67626953125
21168.440346875,-0.30712890625,-0.1676025390625,0.0477294921875,33.02001953125,5.2490234375,-5.67626953125
21168.440549041,-0.30712890625,-0.12451171875,0.0477294921875,33.02001953125,5.2490234375,-5.67626953125
21168.440620916,-0.30712890625,-0.12451171875,0.07861328125,33.02001953125,5.2490234375,-5.67626953125
21168.470534,-0.30712890625,-0.12451171875,0.07861328125,33.02001953125,45.2880859375,-5.67626953125
21168.470782083,-0.30712890625,-0.12451171875,0.07861328125,33.02001953125,45.2880859375,-18.61572265625
21168.471723666,-0.3189697265625,-0.12451171875,0.07861328125,33.02001953125,45.2880859375,-18.61572265625
21168.500206666,-0.3189697265625,-0.12451171875,0.12158203125,33.02001953125,45.2880859375,-18.61572265625
21168.501635416,-0.3189697265625,-0.12451171875,0.12158203125,0.48828125,45.2880859375,-18.61572265625
21168.501810625,-0.3189697265625,-0.12451171875,0.12158203125,0.48828125,70.80078125,-18.61572265625
21168.52231475,-0.30908203125,-0.12451171875,0.12158203125,0.48828125,70.80078125,-18.61572265625
21168.522398708,-0.30908203125,-0.097412109375,0.12158203125,0.48828125,70.80078125,-18.61572265625
21168.522469791,-0.30908203125,-0.097412109375,0.264892578125,0.48828125,70.80078125,-18.61572265625
21168.530343291,-0.30908203125,-0.097412109375,0.264892578125,0.48828125,106.3232421875,-18.61572265625
21168.530519875,-0.30908203125,-0.097412109375,0.264892578125,0.48828125,106.3232421875,-38.818359375
21168.545565375,-0.277099609375,-0.097412109375,0.264892578125,0.48828125,106.3232421875,-38.818359375
21168.545716083,-0.277099609375,0.0333251953125,0.264892578125,0.48828125,106.3232421875,-38.818359375
21168.545792291,-0.277099609375,0.0333251953125,0.523193359375,0.48828125,106.3232421875,-38.818359375
21168.560458791,-0.277099609375,0.0333251953125,0.523193359375,0.48828125,128.90625,-38.818359375
21168.560646583,-0.277099609375,0.0333251953125,0.523193359375,0.48828125,128.90625,-41.015625
21168.590471,-0.2022705078125,0.0333251953125,0.523193359375,0.48828125,128.90625,-41.015625
21168.590599458,-0.2022705078125,-0.0023193359375,0.523193359375,0.48828125,128.90625,-41.015625
21168.591107333,-0.2022705078125,-0.0023193359375,0.6939697265625,0.48828125,128.90625,-41.015625
21168.591322375,-0.2022705078125,-0.0023193359375,0.6939697265625,0.48828125,144.1650390625,-41.015625
21168.605561875,-0.122802734375,-0.0023193359375,0.6939697265625,0.48828125,144.1650390625,-41.015625
21168.605772375,-0.122802734375,0.0380859375,0.6939697265625,0.48828125,144.1650390625,-41.015625
21168.606762083,-0.122802734375,0.0380859375,0.767822265625,0.48828125,144.1650390625,-41.015625
21168.635531541,-0.122802734375,0.0380859375,0.767822265625,0.48828125,149.7802734375,-41.015625
21168.635753791,-0.122802734375,0.0380859375,0.767822265625,0.48828125,149.7802734375,-41.1376953125
21168.656231041,0.0164794921875,0.0380859375,0.767822265625,0.48828125,149.7802734375,-41.1376953125
21168.656358375,0.0164794921875,0.0982666015625,0.767822265625,0.48828125,149.7802734375,-41.1376953125
21168.656458208,0.0164794921875,0.0982666015625,0.9403076171875,0.48828125,149.7802734375,-41.1376953125
21168.817039833,0.0784912109375,0.0982666015625,0.9403076171875,0.48828125,149.7802734375,-41.1376953125
21168.817752833,0.0784912109375,0.1741943359375,0.9403076171875,0.48828125,149.7802734375,-41.1376953125
21168.817955875,0.0784912109375,0.1741943359375,1.005859375,0.48828125,149.7802734375,-41.1376953125
21168.8182715,0.0784912109375,0.1741943359375,1.005859375,-51.3916015625,149.7802734375,-41.1376953125
21168.845653833,0.1107177734375,0.1741943359375,1.005859375,-51.3916015625,149.7802734375,-41.1376953125
21168.845884833,0.1107177734375,0.1668701171875,1.005859375,-51.3916015625,149.7802734375,-41.1376953125
21168.846200083,0.1107177734375,0.1668701171875,1.0125732421875,-51.3916015625,149.7802734375,-41.1376953125
21168.846413208,0.1107177734375,0.1668701171875,1.0125732421875,-51.3916015625,148.98681640625,-41.1376953125
21168.90631125,0.54931640625,0.1668701171875,1.0125732421875,-51.3916015625,148.98681640625,-41.1376953125
21168.906759583,0.54931640625,0.26123046875,1.0125732421875,-51.3916015625,148.98681640625,-41.1376953125
21168.906882375,0.54931640625,0.26123046875,1.0040283203125,-51.3916015625,148.98681640625,-41.1376953125
21168.9071305,0.54931640625,0.26123046875,1.0040283203125,-86.85302734375,148.98681640625,-41.1376953125
