Timestamp,Accel_X,Accel_Y,Accel_Z,Gyro_X,Gyro_Y,Gyro_Z
22775.288824208,0.170166015625,0.0,0.0,0.0,0.0,0.0
22775.320195125,0.166748046875,0.0,0.0,0.0,0.0,0.0
22775.334666291,0.159423828125,0.0,0.0,0.0,0.0,0.0
22775.334820083,0.159423828125,0.1236572265625,0.0,0.0,0.0,0.0
22775.363281458,0.1612548828125,0.1236572265625,0.0,0.0,0.0,0.0
22775.364473041,0.1612548828125,0.10888671875,0.0,0.0,0.0,0.0
22775.377389666,0.1683349609375,0.10888671875,0.0,0.0,0.0,0.0
22775.378411541,0.1683349609375,0.1148681640625,0.0,0.0,0.0,0.0
22775.408476625,0.146728515625,0.1148681640625,0.0,0.0,0.0,0.0
22775.413564583,0.146728515625,0.1177978515625,0.0,0.0,0.0,0.0
22775.413855083,0.146728515625,0.1177978515625,0.9576416015625,0.0,0.0,0.0
22775.423678166,0.167724609375,0.1177978515625,0.9576416015625,0.0,0.0,0.0
22775.42381575,0.167724609375,0.1055908203125,0.9576416015625,0.0,0.0,0.0
22775.454246333,0.1527099609375,0.1055908203125,0.9576416015625,0.0,0.0,0.0
22775.454513666,0.1527099609375,0.1038818359375,0.9576416015625,0.0,0.0,0.0
22775.45677425,0.1527099609375,0.1038818359375,0.94189453125,0.0,0.0,0.0
22775.457035666,0.1527099609375,0.1038818359375,0.94189453125,3.84521484375,0.0,0.0
22775.469433208,0.1463623046875,0.1038818359375,0.94189453125,3.84521484375,0.0,0.0
22775.469577166,0.1463623046875,0.0982666015625,0.94189453125,3.84521484375,0.0,0.0
22775.485889166,0.1463623046875,0.0982666015625,0.94189453125,2.44140625,0.0,0.0
22775.485980333,0.1463623046875,0.0982666015625,0.94189453125,2.44140625,-0.244140625,0.0
22775.502957333,0.190673828125,0.0982666015625,0.94189453125,2.44140625,-0.244140625,0.0
22775.503054541,0.190673828125,0.121826171875,0.94189453125,2.44140625,-0.244140625,0.0
22775.512986,0.190673828125,0.121826171875,0.94189453125,2.44140625,-1.40380859375,0.0
22775.519331041,0.190673828125,0.121826171875,0.94189453125,2.44140625,-1.40380859375,5.06591796875
22775.542400541,0.1876220703125,0.121826171875,0.94189453125,2.44140625,-1.40380859375,5.06591796875
22775.542605208,0.1876220703125,0.11083984375,0.94189453125,2.44140625,-1.40380859375,5.06591796875
22775.543492708,0.1876220703125,0.11083984375,0.954345703125,2.44140625,-1.40380859375,5.06591796875
22775.543688708,0.1876220703125,0.11083984375,0.954345703125,3.41796875,-1.40380859375,5.06591796875
22775.575117375,0.1812744140625,0.11083984375,0.954345703125,3.41796875,-1.40380859375,5.06591796875
22775.580302625,0.1812744140625,0.112548828125,0.954345703125,3.41796875,-1.40380859375,5.06591796875
22775.580479583,0.1812744140625,0.112548828125,0.9530029296875,3.41796875,-1.40380859375,5.06591796875
22775.5805935,0.1812744140625,0.112548828125,0.9530029296875,4.57763671875,-1.40380859375,5.06591796875
22775.5874535,0.174072265625,0.112548828125,0.9530029296875,4.57763671875,-1.40380859375,5.06591796875
22775.587664,0.174072265625,0.1029052734375,0.9530029296875,4.57763671875,-1.40380859375,5.06591796875
22775.58885,0.174072265625,0.1029052734375,0.949462890625,4.57763671875,-1.40380859375,5.06591796875
22775.602990833,0.174072265625,0.1029052734375,0.949462890625,4.57763671875,2.197265625,5.06591796875
22775.603195083,0.174072265625,0.1029052734375,0.949462890625,4.57763671875,2.197265625,-0.6103515625
22775.632500708,0.1744384765625,0.1029052734375,0.949462890625,4.57763671875,2.197265625,-0.6103515625
22775.632690833,0.1744384765625,0.098876953125,0.949462890625,4.57763671875,2.197265625,-0.6103515625
22775.633316791,0.1744384765625,0.098876953125,0.9525146484375,4.57763671875,2.197265625,-0.6103515625
22775.633487375,0.1744384765625,0.098876953125,0.9525146484375,3.96728515625,2.197265625,-0.6103515625
22775.663658291,0.1700439453125,0.098876953125,0.9525146484375,3.96728515625,2.197265625,-0.6103515625
22775.669589,0.1700439453125,0.1038818359375,0.9525146484375,3.96728515625,2.197265625,-0.6103515625
22775.669754,0.1700439453125,0.1038818359375,0.9422607421875,3.96728515625,2.197265625,-0.6103515625
22775.669893916,0.1700439453125,0.1038818359375,0.9422607421875,2.685546875,2.197265625,-0.6103515625
22775.677725,0.1802978515625,0.1038818359375,0.9422607421875,2.685546875,2.197265625,-0.6103515625
22775.67792775,0.1802978515625,0.1085205078125,0.9422607421875,2.685546875,2.197265625,-0.6103515625
22775.67951425,0.1802978515625,0.1085205078125,0.9420166015625,2.685546875,2.197265625,-0.6103515625
22775.692665958,0.1802978515625,0.1085205078125,0.9420166015625,2.685546875,-0.42724609375,-0.6103515625
22775.692848708,0.1802978515625,0.1085205078125,0.9420166015625,2.685546875,-0.42724609375,-0.79345703125
22775.72255225,0.1837158203125,0.1085205078125,0.9420166015625,2.685546875,-0.42724609375,-0.79345703125
22775.72274825,0.1837158203125,0.0965576171875,0.9420166015625,2.685546875,-0.42724609375,-0.79345703125
22775.723855125,0.1837158203125,0.0965576171875,0.948974609375,2.685546875,-0.42724609375,-0.79345703125
22775.724036083,0.1837158203125,0.0965576171875,0.948974609375,3.11279296875,-0.42724609375,-0.79345703125
22775.737141958,0.1849365234375,0.0965576171875,0.948974609375,3.11279296875,-0.42724609375,-0.79345703125
22775.737318,0.1849365234375,0.09814453125,0.948974609375,3.11279296875,-0.42724609375,-0.79345703125
22775.73800325,0.1849365234375,0.09814453125,0.942138671875,3.11279296875,-0.42724609375,-0.79345703125
22775.753013208,0.1849365234375,0.09814453125,0.942138671875,3.11279296875,-1.64794921875,-0.79345703125
22775.753089583,0.1849365234375,0.09814453125,0.942138671875,3.11279296875,-1.64794921875,0.8544921875
22775.769252541,0.1741943359375,0.09814453125,0.942138671875,3.11279296875,-1.64794921875,0.8544921875
22775.769328625,0.1741943359375,0.1109619140625,0.942138671875,3.11279296875,-1.64794921875,0.8544921875
22775.769399875,0.1741943359375,0.1109619140625,0.952880859375,3.11279296875,-1.64794921875,0.8544921875
22775.786048833,0.1741943359375,0.1109619140625,0.952880859375,3.11279296875,-1.220703125,0.8544921875
22775.786139125,0.1741943359375,0.1109619140625,0.952880859375,3.11279296875,-1.220703125,1.46484375
22775.796972875,0.1761474609375,0.1109619140625,0.952880859375,3.11279296875,-1.220703125,1.46484375
22775.802496833,0.1761474609375,0.10302734375,0.952880859375,3.11279296875,-1.220703125,1.46484375
22775.802701083,0.1761474609375,0.10302734375,0.9505615234375,3.11279296875,-1.220703125,1.46484375
22775.812811833,0.1761474609375,0.10302734375,0.9505615234375,3.11279296875,-0.79345703125,1.46484375
22775.81932275,0.1761474609375,0.10302734375,0.9505615234375,3.11279296875,-0.79345703125,1.77001953125
22775.829191958,0.1724853515625,0.10302734375,0.9505615234375,3.11279296875,-0.79345703125,1.77001953125
22775.829467458,0.1724853515625,0.106201171875,0.9505615234375,3.11279296875,-0.79345703125,1.77001953125
22775.829593041,0.1724853515625,0.106201171875,0.9527587890625,3.11279296875,-0.79345703125,1.77001953125
22775.843875541,0.1724853515625,0.106201171875,0.9527587890625,3.11279296875,-0.67138671875,1.77001953125
22775.844056666,0.1724853515625,0.106201171875,0.9527587890625,3.11279296875,-0.67138671875,1.64794921875
22775.857172958,0.179931640625,0.106201171875,0.9527587890625,3.11279296875,-0.67138671875,1.64794921875
22775.857336791,0.179931640625,0.1043701171875,0.9527587890625,3.11279296875,-0.67138671875,1.64794921875
22775.858737541,0.179931640625,0.1043701171875,0.9415283203125,3.11279296875,-0.67138671875,1.64794921875
22775.88782075,0.179931640625,0.1043701171875,0.9415283203125,3.11279296875,-1.708984375,1.64794921875
22775.888063375,0.179931640625,0.1043701171875,0.9415283203125,3.11279296875,-1.708984375,1.15966796875
22775.888189791,0.168701171875,0.1043701171875,0.9415283203125,3.11279296875,-1.708984375,1.15966796875
22775.90266325,0.168701171875,0.1043701171875,0.9432373046875,3.11279296875,-1.708984375,1.15966796875
22775.902806541,0.168701171875,0.1043701171875,0.9432373046875,2.25830078125,-1.708984375,1.15966796875
22775.903453708,0.168701171875,0.1043701171875,0.9432373046875,2.25830078125,-1.5869140625,1.15966796875
22775.919242958,0.1591796875,0.1043701171875,0.9432373046875,2.25830078125,-1.5869140625,1.15966796875
22775.919320458,0.1591796875,0.1058349609375,0.9432373046875,2.25830078125,-1.5869140625,1.15966796875
22775.919537916,0.1591796875,0.1058349609375,0.9632568359375,2.25830078125,-1.5869140625,1.15966796875
22775.93538525,0.1591796875,0.1058349609375,0.9632568359375,2.25830078125,-0.8544921875,1.15966796875
22775.935465458,0.1591796875,0.1058349609375,0.9632568359375,2.25830078125,-0.8544921875,2.13623046875
22775.952163708,0.16943359375,0.1058349609375,0.9632568359375,2.25830078125,-0.8544921875,2.13623046875
22775.952238916,0.16943359375,0.10302734375,0.9632568359375,2.25830078125,-0.8544921875,2.13623046875
22775.9523065,0.16943359375,0.10302734375,0.9644775390625,2.25830078125,-0.8544921875,2.13623046875
22775.968634791,0.16943359375,0.10302734375,0.9644775390625,2.25830078125,-0.244140625,2.13623046875
22775.968707708,0.16943359375,0.10302734375,0.9644775390625,2.25830078125,-0.244140625,2.0751953125
22775.978354458,0.1846923828125,0.10302734375,0.9644775390625,2.25830078125,-0.244140625,2.0751953125
22775.978581708,0.1846923828125,0.1064453125,0.9644775390625,2.25830078125,-0.244140625,2.0751953125
22775.978686041,0.1846923828125,0.1064453125,0.950927734375,2.25830078125,-0.244140625,2.0751953125
22775.9927775,0.1846923828125,0.1064453125,0.950927734375,2.25830078125,-0.54931640625,2.0751953125
22775.99293125,0.1846923828125,0.1064453125,0.950927734375,2.25830078125,-0.54931640625,0.79345703125
22776.007341416,0.173095703125,0.1064453125,0.950927734375,2.25830078125,-0.54931640625,0.79345703125
22776.007485875,0.173095703125,0.1009521484375,0.950927734375,2.25830078125,-0.54931640625,0.79345703125
22776.008885708,0.173095703125,0.1009521484375,0.9449462890625,2.25830078125,-0.54931640625,0.79345703125
22776.022855166,0.173095703125,0.1009521484375,0.9449462890625,2.25830078125,0.6103515625,0.79345703125
22776.023033791,0.173095703125,0.1009521484375,0.9449462890625,2.25830078125,0.6103515625,0.48828125
22776.038909416,0.1744384765625,0.1009521484375,0.9449462890625,2.25830078125,0.6103515625,0.48828125
22776.039112958,0.1744384765625,0.101806640625,0.9449462890625,2.25830078125,0.6103515625,0.48828125
22776.039220583,0.1744384765625,0.101806640625,0.9412841796875,2.25830078125,0.6103515625,0.48828125
22776.053585833,0.1744384765625,0.101806640625,0.9412841796875,2.25830078125,0.732421875,0.48828125
22776.053731333,0.1744384765625,0.101806640625,0.9412841796875,2.25830078125,0.732421875,1.15966796875
22776.069257333,0.1851806640625,0.101806640625,0.9412841796875,2.25830078125,0.732421875,1.15966796875
22776.069477666,0.1851806640625,0.1033935546875,0.9412841796875,2.25830078125,0.732421875,1.15966796875
22776.0695675,0.1851806640625,0.1033935546875,0.9390869140625,2.25830078125,0.732421875,1.15966796875
22776.085567583,0.1851806640625,0.1033935546875,0.9390869140625,2.25830078125,0.732421875,1.15966796875
22776.085642416,0.1851806640625,0.1033935546875,0.9390869140625,2.25830078125,0.732421875,0.9765625
22776.102395833,0.18359375,0.1033935546875,0.9390869140625,2.25830078125,0.732421875,0.9765625
22776.1024685,0.18359375,0.1104736328125,0.9390869140625,2.25830078125,0.732421875,0.9765625
22776.102534916,0.18359375,0.1104736328125,0.9468994140625,2.25830078125,0.732421875,0.9765625
22776.112971708,0.18359375,0.1104736328125,0.9468994140625,2.25830078125,0.0,0.9765625
22776.1188225,0.18359375,0.1104736328125,0.9468994140625,2.25830078125,0.0,0.8544921875
22776.12913275,0.1845703125,0.1104736328125,0.9468994140625,2.25830078125,0.0,0.8544921875
22776.135189416,0.1845703125,0.1044921875,0.9468994140625,2.25830078125,0.0,0.8544921875
22776.135297458,0.1845703125,0.1044921875,0.9420166015625,2.25830078125,0.0,0.8544921875
22776.144060083,0.1845703125,0.1044921875,0.9420166015625,2.25830078125,-0.244140625,0.8544921875
22776.144260916,0.1845703125,0.1044921875,0.9420166015625,2.25830078125,-0.244140625,0.42724609375
22776.158606125,0.174072265625,0.1044921875,0.9420166015625,2.25830078125,-0.244140625,0.42724609375
22776.158814208,0.174072265625,0.1043701171875,0.9420166015625,2.25830078125,-0.244140625,0.42724609375
22776.158919583,0.174072265625,0.1043701171875,0.9442138671875,2.25830078125,-0.244140625,0.42724609375
22776.17349975,0.174072265625,0.1043701171875,0.9442138671875,2.25830078125,-0.67138671875,0.42724609375
22776.173673458,0.174072265625,0.1043701171875,0.9442138671875,2.25830078125,-0.67138671875,-0.18310546875
22776.189750541,0.173095703125,0.1043701171875,0.9442138671875,2.25830078125,-0.67138671875,-0.18310546875
22776.189959,0.173095703125,0.106689453125,0.9442138671875,2.25830078125,-0.67138671875,-0.18310546875
22776.190067375,0.173095703125,0.106689453125,0.9473876953125,2.25830078125,-0.67138671875,-0.18310546875
22776.203734,0.173095703125,0.106689453125,0.9473876953125,2.25830078125,-0.6103515625,-0.18310546875
22776.203902833,0.173095703125,0.106689453125,0.9473876953125,2.25830078125,-0.6103515625,0.244140625
22776.280410458,0.1719970703125,0.106689453125,0.9473876953125,2.25830078125,-0.6103515625,0.244140625
22776.280843208,0.1719970703125,0.1099853515625,0.9473876953125,2.25830078125,-0.6103515625,0.244140625
22776.280991083,0.1719970703125,0.1099853515625,0.9613037109375,2.25830078125,-0.6103515625,0.244140625
22776.293117458,0.1719970703125,0.1099853515625,0.9613037109375,2.25830078125,0.244140625,0.244140625
22776.29334675,0.1719970703125,0.1099853515625,0.9613037109375,2.25830078125,0.244140625,0.9765625
22776.32257725,0.1707763671875,0.1099853515625,0.9613037109375,2.25830078125,0.244140625,0.9765625
22776.32274375,0.1707763671875,0.1083984375,0.9613037109375,2.25830078125,0.244140625,0.9765625
22776.323650833,0.1707763671875,0.1083984375,0.94873046875,2.25830078125,0.244140625,0.9765625
22776.323839041,0.1707763671875,0.1083984375,0.94873046875,0.8544921875,0.244140625,0.9765625
22776.337920083,0.1744384765625,0.1083984375,0.94873046875,0.8544921875,0.244140625,0.9765625
22776.338028791,0.1744384765625,0.101806640625,0.94873046875,0.8544921875,0.244140625,0.9765625
22776.340197166,0.1744384765625,0.101806640625,0.9486083984375,0.8544921875,0.244140625,0.9765625
22776.354574083,0.1744384765625,0.101806640625,0.9486083984375,0.8544921875,-0.18310546875,0.9765625
22776.354756291,0.1744384765625,0.101806640625,0.9486083984375,0.8544921875,-0.18310546875,0.48828125
22776.369329208,0.1776123046875,0.101806640625,0.9486083984375,0.8544921875,-0.18310546875,0.48828125
22776.369418541,0.1776123046875,0.1053466796875,0.9486083984375,0.8544921875,-0.18310546875,0.48828125
22776.369522875,0.1776123046875,0.1053466796875,0.94677734375,0.8544921875,-0.18310546875,0.48828125
22776.386061833,0.1776123046875,0.1053466796875,0.94677734375,0.8544921875,0.244140625,0.48828125
22776.386158083,0.1776123046875,0.1053466796875,0.94677734375,0.8544921875,0.244140625,2.0751953125
22776.402768208,0.177734375,0.1053466796875,0.94677734375,0.8544921875,0.244140625,2.0751953125
22776.402844625,0.177734375,0.105224609375,0.94677734375,0.8544921875,0.244140625,2.0751953125
22776.402911416,0.177734375,0.105224609375,0.947998046875,0.8544921875,0.244140625,2.0751953125
22776.412383083,0.177734375,0.105224609375,0.947998046875,0.8544921875,0.30517578125,2.0751953125
22776.412593375,0.177734375,0.105224609375,0.947998046875,0.8544921875,0.30517578125,2.44140625
22776.442106875,0.18115234375,0.105224609375,0.947998046875,0.8544921875,0.30517578125,2.44140625
22776.442313416,0.18115234375,0.1021728515625,0.947998046875,0.8544921875,0.30517578125,2.44140625
22776.443034875,0.18115234375,0.1021728515625,0.9459228515625,0.8544921875,0.30517578125,2.44140625
22776.443207416,0.18115234375,0.1021728515625,0.9459228515625,2.13623046875,0.30517578125,2.44140625
22776.468885458,0.1787109375,0.1021728515625,0.9459228515625,2.13623046875,0.30517578125,2.44140625
22776.468958083,0.1787109375,0.101318359375,0.9459228515625,2.13623046875,0.30517578125,2.44140625
22776.469024166,0.1787109375,0.101318359375,0.9473876953125,2.13623046875,0.30517578125,2.44140625
22776.472257083,0.1787109375,0.101318359375,0.9473876953125,2.13623046875,0.18310546875,2.44140625
22776.472444,0.1787109375,0.101318359375,0.9473876953125,2.13623046875,0.18310546875,1.8310546875
22776.487161625,0.17822265625,0.101318359375,0.9473876953125,2.13623046875,0.18310546875,1.8310546875
22776.48731675,0.17822265625,0.1043701171875,0.9473876953125,2.13623046875,0.18310546875,1.8310546875
22776.48855225,0.17822265625,0.1043701171875,0.9444580078125,2.13623046875,0.18310546875,1.8310546875
22776.502243958,0.17822265625,0.1043701171875,0.9444580078125,2.13623046875,0.0,1.8310546875
22776.502331541,0.17822265625,0.1043701171875,0.9444580078125,2.13623046875,0.0,2.0751953125
22776.518842916,0.181396484375,0.1043701171875,0.9444580078125,2.13623046875,0.0,2.0751953125
22776.51891425,0.181396484375,0.10595703125,0.9444580078125,2.13623046875,0.0,2.0751953125
22776.518981,0.181396484375,0.10595703125,0.9466552734375,2.13623046875,0.0,2.0751953125
22776.577766791,0.181396484375,0.10595703125,0.9466552734375,2.13623046875,-0.18310546875,2.0751953125
22776.578237833,0.181396484375,0.10595703125,0.9466552734375,2.13623046875,-0.18310546875,2.5634765625
22776.578375416,0.1800537109375,0.10595703125,0.9466552734375,2.13623046875,-0.18310546875,2.5634765625
22776.602232166,0.1800537109375,0.10595703125,0.9454345703125,2.13623046875,-0.18310546875,2.5634765625
22776.602308958,0.1800537109375,0.10595703125,0.9454345703125,1.03759765625,-0.18310546875,2.5634765625
22776.602377916,0.1800537109375,0.10595703125,0.9454345703125,1.03759765625,-0.91552734375,2.5634765625
22776.62227475,0.179931640625,0.10595703125,0.9454345703125,1.03759765625,-0.91552734375,2.5634765625
22776.622426666,0.179931640625,0.1015625,0.9454345703125,1.03759765625,-0.91552734375,2.5634765625
22776.623060708,0.179931640625,0.1015625,0.9532470703125,1.03759765625,-0.91552734375,2.5634765625
22776.623240083,0.179931640625,0.1015625,0.9532470703125,0.67138671875,-0.91552734375,2.5634765625
22776.637817375,0.183837890625,0.1015625,0.9532470703125,0.67138671875,-0.91552734375,2.5634765625
22776.63800225,0.183837890625,0.1041259765625,0.9532470703125,0.67138671875,-0.91552734375,2.5634765625
22776.639333041,0.183837890625,0.1041259765625,0.9471435546875,0.67138671875,-0.91552734375,2.5634765625
22776.653659333,0.183837890625,0.1041259765625,0.9471435546875,0.67138671875,0.0,2.5634765625
22776.653830541,0.183837890625,0.1041259765625,0.9471435546875,0.67138671875,0.0,2.197265625
22776.668776125,0.1810302734375,0.1041259765625,0.9471435546875,0.67138671875,0.0,2.197265625
22776.6688505,0.1810302734375,0.1146240234375,0.9471435546875,0.67138671875,0.0,2.197265625
22776.668918208,0.1810302734375,0.1146240234375,0.94677734375,0.67138671875,0.0,2.197265625
22776.685344166,0.1810302734375,0.1146240234375,0.94677734375,0.67138671875,-0.30517578125,2.197265625
22776.685421791,0.1810302734375,0.1146240234375,0.94677734375,0.67138671875,-0.30517578125,1.64794921875
22776.702151291,0.183349609375,0.1146240234375,0.94677734375,0.67138671875,-0.30517578125,1.64794921875
22776.702227041,0.183349609375,0.1097412109375,0.94677734375,0.67138671875,-0.30517578125,1.64794921875
22776.702295291,0.183349609375,0.1097412109375,0.9417724609375,0.67138671875,-0.30517578125,1.64794921875
22776.712289,0.183349609375,0.1097412109375,0.9417724609375,0.67138671875,-0.54931640625,1.64794921875
22776.718652666,0.183349609375,0.1097412109375,0.9417724609375,0.67138671875,-0.54931640625,1.3427734375
22776.727352666,0.1798095703125,0.1097412109375,0.9417724609375,0.67138671875,-0.54931640625,1.3427734375
22776.727574416,0.1798095703125,0.1036376953125,0.9417724609375,0.67138671875,-0.54931640625,1.3427734375
22776.72768675,0.1798095703125,0.1036376953125,0.9490966796875,0.67138671875,-0.54931640625,1.3427734375
22776.743115833,0.1798095703125,0.1036376953125,0.9490966796875,0.67138671875,-0.48828125,1.3427734375
22776.743269958,0.1798095703125,0.1036376953125,0.9490966796875,0.67138671875,-0.48828125,0.79345703125
22776.758878083,0.1761474609375,0.1036376953125,0.9490966796875,0.67138671875,-0.48828125,0.79345703125
22776.759061083,0.1761474609375,0.1090087890625,0.9490966796875,0.67138671875,-0.48828125,0.79345703125
22776.759164083,0.1761474609375,0.1090087890625,0.952392578125,0.67138671875,-0.48828125,0.79345703125
22776.774060125,0.1761474609375,0.1090087890625,0.952392578125,0.67138671875,-0.30517578125,0.79345703125
22776.774217416,0.1761474609375,0.1090087890625,0.952392578125,0.67138671875,-0.30517578125,1.40380859375
22776.788878375,0.1788330078125,0.1090087890625,0.952392578125,0.67138671875,-0.30517578125,1.40380859375
22776.789097041,0.1788330078125,0.11279296875,0.952392578125,0.67138671875,-0.30517578125,1.40380859375
22776.789193083,0.1788330078125,0.11279296875,0.9447021484375,0.67138671875,-0.30517578125,1.40380859375
22776.803823791,0.1788330078125,0.11279296875,0.9447021484375,0.67138671875,-0.67138671875,1.40380859375
22776.803992916,0.1788330078125,0.11279296875,0.9447021484375,0.67138671875,-0.67138671875,0.9765625
22776.818775166,0.18017578125,0.11279296875,0.9447021484375,0.67138671875,-0.67138671875,0.9765625
22776.818850041,0.18017578125,0.111572265625,0.9447021484375,0.67138671875,-0.67138671875,0.9765625
22776.818917583,0.18017578125,0.111572265625,0.943359375,0.67138671875,-0.67138671875,0.9765625
22776.878872916,0.18017578125,0.111572265625,0.943359375,0.67138671875,-0.8544921875,0.9765625
22776.879181875,0.18017578125,0.111572265625,0.943359375,0.67138671875,-0.8544921875,1.03759765625
22776.879289208,0.1773681640625,0.111572265625,0.943359375,0.67138671875,-0.8544921875,1.03759765625
22776.902288833,0.1773681640625,0.111572265625,0.94873046875,0.67138671875,-0.8544921875,1.03759765625
22776.902367916,0.1773681640625,0.111572265625,0.94873046875,0.18310546875,-0.8544921875,1.03759765625
22776.902450791,0.1773681640625,0.111572265625,0.94873046875,0.18310546875,-1.220703125,1.03759765625
22776.908804458,0.180419921875,0.111572265625,0.94873046875,0.18310546875,-1.220703125,1.03759765625
22776.909042958,0.180419921875,0.109130859375,0.94873046875,0.18310546875,-1.220703125,1.03759765625
22776.909133916,0.180419921875,0.109130859375,0.9517822265625,0.18310546875,-1.220703125,1.03759765625
22776.923210708,0.180419921875,0.109130859375,0.9517822265625,0.18310546875,-0.244140625,1.03759765625
22776.923354041,0.180419921875,0.109130859375,0.9517822265625,0.18310546875,-0.244140625,1.64794921875
22776.938860708,0.1768798828125,0.109130859375,0.9517822265625,0.18310546875,-0.244140625,1.64794921875
22776.93903675,0.1768798828125,0.113037109375,0.9517822265625,0.18310546875,-0.244140625,1.64794921875
22776.939128666,0.1768798828125,0.113037109375,0.9462890625,0.18310546875,-0.244140625,1.64794921875
22776.952945541,0.1768798828125,0.113037109375,0.9462890625,0.18310546875,-0.3662109375,1.64794921875
22776.953100291,0.1768798828125,0.113037109375,0.9462890625,0.18310546875,-0.3662109375,2.0751953125
22776.969004,0.1875,0.113037109375,0.9462890625,0.18310546875,-0.3662109375,2.0751953125
22776.9691905,0.1875,0.110595703125,0.9462890625,0.18310546875,-0.3662109375,2.0751953125
22776.969285375,0.1875,0.110595703125,0.943115234375,0.18310546875,-0.3662109375,2.0751953125
22776.984945333,0.1875,0.110595703125,0.943115234375,0.18310546875,-0.54931640625,2.0751953125
22776.985005458,0.1875,0.110595703125,0.943115234375,0.18310546875,-0.54931640625,1.46484375
22777.002306375,0.18212890625,0.110595703125,0.943115234375,0.18310546875,-0.54931640625,1.46484375
22777.002376375,0.18212890625,0.1138916015625,0.943115234375,0.18310546875,-0.54931640625,1.46484375
22777.002435666,0.18212890625,0.1138916015625,0.9462890625,0.18310546875,-0.54931640625,1.46484375
22777.013189958,0.18212890625,0.1138916015625,0.9462890625,0.18310546875,-1.03759765625,1.46484375
22777.018494125,0.18212890625,0.1138916015625,0.9462890625,0.18310546875,-1.03759765625,0.0
22777.027427083,0.1788330078125,0.1138916015625,0.9462890625,0.18310546875,-1.03759765625,0.0
22777.027569791,0.1788330078125,0.111572265625,0.9462890625,0.18310546875,-1.03759765625,0.0
22777.028576708,0.1788330078125,0.111572265625,0.944091796875,0.18310546875,-1.03759765625,0.0
22777.042300416,0.1788330078125,0.111572265625,0.944091796875,0.18310546875,-0.9765625,0.0
22777.042535291,0.1788330078125,0.111572265625,0.944091796875,0.18310546875,-0.9765625,-0.79345703125
22777.057920125,0.1776123046875,0.111572265625,0.944091796875,0.18310546875,-0.9765625,-0.79345703125
22777.058111541,0.1776123046875,0.1160888671875,0.944091796875,0.18310546875,-0.9765625,-0.79345703125
22777.058207416,0.1776123046875,0.1160888671875,0.949951171875,0.18310546875,-0.9765625,-0.79345703125
22777.074588625,0.1776123046875,0.1160888671875,0.949951171875,0.18310546875,-1.0986328125,-0.79345703125
22777.074721125,0.1776123046875,0.1160888671875,0.949951171875,0.18310546875,-1.0986328125,-0.6103515625
22777.08875025,0.182373046875,0.1160888671875,0.949951171875,0.18310546875,-1.0986328125,-0.6103515625
22777.088931708,0.182373046875,0.1131591796875,0.949951171875,0.18310546875,-1.0986328125,-0.6103515625
22777.089023333,0.182373046875,0.1131591796875,0.9478759765625,0.18310546875,-1.0986328125,-0.6103515625
22777.102305833,0.182373046875,0.1131591796875,0.9478759765625,0.18310546875,-0.48828125,-0.6103515625
22777.102429416,0.182373046875,0.1131591796875,0.9478759765625,0.18310546875,-0.48828125,0.48828125
22777.11829475,0.1641845703125,0.1131591796875,0.9478759765625,0.18310546875,-0.48828125,0.48828125
22777.118359041,0.1641845703125,0.114501953125,0.9478759765625,0.18310546875,-0.48828125,0.48828125
22777.118417708,0.1641845703125,0.114501953125,0.947021484375,0.18310546875,-0.48828125,0.48828125
22777.192077083,0.1641845703125,0.114501953125,0.947021484375,0.18310546875,-0.67138671875,0.48828125
22777.19228,0.1641845703125,0.114501953125,0.947021484375,0.18310546875,-0.67138671875,0.79345703125
22777.19285575,0.1732177734375,0.114501953125,0.947021484375,0.18310546875,-0.67138671875,0.79345703125
22777.21902625,0.1732177734375,0.114501953125,0.9454345703125,0.18310546875,-0.67138671875,0.79345703125
22777.219119333,0.1732177734375,0.114501953125,0.9454345703125,0.8544921875,-0.67138671875,0.79345703125
22777.219189625,0.1732177734375,0.114501953125,0.9454345703125,0.8544921875,-0.18310546875,0.79345703125
22777.237195833,0.17529296875,0.114501953125,0.9454345703125,0.8544921875,-0.18310546875,0.79345703125
22777.237370666,0.17529296875,0.1190185546875,0.9454345703125,0.8544921875,-0.18310546875,0.79345703125
22777.237941166,0.17529296875,0.1190185546875,0.945556640625,0.8544921875,-0.18310546875,0.79345703125
22777.238080375,0.17529296875,0.1190185546875,0.945556640625,0.54931640625,-0.18310546875,0.79345703125
22777.252439458,0.178955078125,0.1190185546875,0.945556640625,0.54931640625,-0.18310546875,0.79345703125
22777.252512708,0.178955078125,0.1187744140625,0.945556640625,0.54931640625,-0.18310546875,0.79345703125
22777.25269225,0.178955078125,0.1187744140625,0.9459228515625,0.54931640625,-0.18310546875,0.79345703125
22777.269079583,0.178955078125,0.1187744140625,0.9459228515625,0.54931640625,-0.244140625,0.79345703125
22777.269169166,0.178955078125,0.1187744140625,0.9459228515625,0.54931640625,-0.244140625,2.25830078125
22777.285999666,0.18115234375,0.1187744140625,0.9459228515625,0.54931640625,-0.244140625,2.25830078125
22777.286104625,0.18115234375,0.115234375,0.9459228515625,0.54931640625,-0.244140625,2.25830078125
22777.302734166,0.18115234375,0.115234375,0.9404296875,0.54931640625,-0.244140625,2.25830078125
22777.302812958,0.18115234375,0.115234375,0.9404296875,0.54931640625,-0.42724609375,2.25830078125
22777.302883666,0.18115234375,0.115234375,0.9404296875,0.54931640625,-0.42724609375,2.44140625
22777.312373208,0.1826171875,0.115234375,0.9404296875,0.54931640625,-0.42724609375,2.44140625
22777.312570041,0.1826171875,0.11376953125,0.9404296875,0.54931640625,-0.42724609375,2.44140625
22777.327480666,0.1826171875,0.11376953125,0.9542236328125,0.54931640625,-0.42724609375,2.44140625
22777.327733208,0.1826171875,0.11376953125,0.9542236328125,0.54931640625,0.18310546875,2.44140625
22777.327861291,0.1826171875,0.11376953125,0.9542236328125,0.54931640625,0.18310546875,1.220703125
22777.342236333,0.188232421875,0.11376953125,0.9542236328125,0.54931640625,0.18310546875,1.220703125
22777.3424755,0.188232421875,0.1181640625,0.9542236328125,0.54931640625,0.18310546875,1.220703125
22777.342599125,0.188232421875,0.1181640625,0.946533203125,0.54931640625,0.18310546875,1.220703125
22777.357333791,0.188232421875,0.1181640625,0.946533203125,0.54931640625,0.30517578125,1.220703125
22777.357498125,0.188232421875,0.1181640625,0.946533203125,0.54931640625,0.30517578125,-0.732421875
22777.387320833,0.1802978515625,0.1181640625,0.946533203125,0.54931640625,0.30517578125,-0.732421875
22777.387493291,0.1802978515625,0.1044921875,0.946533203125,0.54931640625,0.30517578125,-0.732421875
22777.388184291,0.1802978515625,0.1044921875,0.93896484375,0.54931640625,0.30517578125,-0.732421875
22777.388401833,0.1802978515625,0.1044921875,0.93896484375,0.54931640625,0.8544921875,-0.732421875
22777.403771875,0.174560546875,0.1044921875,0.93896484375,0.54931640625,0.8544921875,-0.732421875
22777.403958333,0.174560546875,0.135498046875,0.93896484375,0.54931640625,0.8544921875,-0.732421875
22777.404060208,0.174560546875,0.135498046875,0.9371337890625,0.54931640625,0.8544921875,-0.732421875
22777.419153583,0.174560546875,0.135498046875,0.9371337890625,0.54931640625,0.732421875,-0.732421875
22777.419232625,0.174560546875,0.135498046875,0.9371337890625,0.54931640625,0.732421875,-1.15966796875
22777.4788505,0.1962890625,0.135498046875,0.9371337890625,0.54931640625,0.732421875,-1.15966796875
22777.47915,0.1962890625,0.1375732421875,0.9371337890625,0.54931640625,0.732421875,-1.15966796875
22777.479268166,0.1962890625,0.1375732421875,0.943115234375,0.54931640625,0.732421875,-1.15966796875
22777.493265291,0.1962890625,0.1375732421875,0.943115234375,0.54931640625,1.3427734375,-1.15966796875
22777.493523041,0.1962890625,0.1375732421875,0.943115234375,0.54931640625,1.3427734375,-1.0986328125
22777.5236375,0.19873046875,0.1375732421875,0.943115234375,0.54931640625,1.3427734375,-1.0986328125
22777.524059375,0.19873046875,0.058349609375,0.943115234375,0.54931640625,1.3427734375,-1.0986328125
22777.5243135,0.19873046875,0.058349609375,0.944580078125,0.54931640625,1.3427734375,-1.0986328125
22777.524436708,0.19873046875,0.058349609375,0.944580078125,-12.26806640625,1.3427734375,-1.0986328125
22777.537336916,0.2427978515625,0.058349609375,0.944580078125,-12.26806640625,1.3427734375,-1.0986328125
22777.537508416,0.2427978515625,0.1136474609375,0.944580078125,-12.26806640625,1.3427734375,-1.0986328125
22777.538586416,0.2427978515625,0.1136474609375,0.933837890625,-12.26806640625,1.3427734375,-1.0986328125
22777.552852291,0.2427978515625,0.1136474609375,0.933837890625,-12.26806640625,0.48828125,-1.0986328125
22777.552927291,0.2427978515625,0.1136474609375,0.933837890625,-12.26806640625,0.48828125,-4.82177734375
22777.56928725,0.240966796875,0.1136474609375,0.933837890625,-12.26806640625,0.48828125,-4.82177734375
22777.569386291,0.240966796875,0.1773681640625,0.933837890625,-12.26806640625,0.48828125,-4.82177734375
22777.5694705,0.240966796875,0.1773681640625,0.92919921875,-12.26806640625,0.48828125,-4.82177734375
22777.585998,0.240966796875,0.1773681640625,0.92919921875,-12.26806640625,0.42724609375,-4.82177734375
22777.586088625,0.240966796875,0.1773681640625,0.92919921875,-12.26806640625,0.42724609375,-4.57763671875
22777.602879291,0.254638671875,0.1773681640625,0.92919921875,-12.26806640625,0.42724609375,-4.57763671875
22777.60297225,0.254638671875,0.1229248046875,0.92919921875,-12.26806640625,0.42724609375,-4.57763671875
22777.612858791,0.254638671875,0.1229248046875,0.9383544921875,-12.26806640625,0.42724609375,-4.57763671875
22777.619131458,0.254638671875,0.1229248046875,0.9383544921875,-12.26806640625,3.11279296875,-4.57763671875
22777.6192475,0.254638671875,0.1229248046875,0.9383544921875,-12.26806640625,3.11279296875,-5.9814453125
22777.64279075,0.26708984375,0.1229248046875,0.9383544921875,-12.26806640625,3.11279296875,-5.9814453125
22777.643065791,0.26708984375,0.0782470703125,0.9383544921875,-12.26806640625,3.11279296875,-5.9814453125
22777.643269875,0.26708984375,0.0782470703125,0.96484375,-12.26806640625,3.11279296875,-5.9814453125
22777.64346425,0.26708984375,0.0782470703125,0.96484375,-65.673828125,3.11279296875,-5.9814453125
22777.657332791,0.257080078125,0.0782470703125,0.96484375,-65.673828125,3.11279296875,-5.9814453125
22777.672517958,0.257080078125,0.218017578125,0.96484375,-65.673828125,3.11279296875,-5.9814453125
22777.672766708,0.257080078125,0.218017578125,0.9256591796875,-65.673828125,3.11279296875,-5.9814453125
22777.672908625,0.257080078125,0.218017578125,0.9256591796875,-65.673828125,1.03759765625,-5.9814453125
22777.687242791,0.247802734375,0.218017578125,0.9256591796875,-65.673828125,1.03759765625,-5.9814453125
22777.687433041,0.247802734375,0.2850341796875,0.9256591796875,-65.673828125,1.03759765625,-5.9814453125
22777.687541458,0.247802734375,0.2850341796875,0.9224853515625,-65.673828125,1.03759765625,-5.9814453125
22777.702616291,0.247802734375,0.2850341796875,0.9224853515625,-65.673828125,9.82666015625,-5.9814453125
22777.7026935,0.247802734375,0.2850341796875,0.9224853515625,-65.673828125,9.82666015625,-14.7705078125
22777.719301208,0.2763671875,0.2850341796875,0.9224853515625,-65.673828125,9.82666015625,-14.7705078125
22777.719382625,0.2763671875,0.1727294921875,0.9224853515625,-65.673828125,9.82666015625,-14.7705078125
22777.719452958,0.2763671875,0.1727294921875,0.927734375,-65.673828125,9.82666015625,-14.7705078125
22777.777900458,0.2763671875,0.1727294921875,0.927734375,-65.673828125,11.16943359375,-14.7705078125
22777.778257791,0.2763671875,0.1727294921875,0.927734375,-65.673828125,11.16943359375,-18.12744140625
22777.77837825,0.2362060546875,0.1727294921875,0.927734375,-65.673828125,11.16943359375,-18.12744140625
22777.808050333,0.2362060546875,0.1727294921875,0.7159423828125,-65.673828125,11.16943359375,-18.12744140625
22777.813671875,0.2362060546875,0.1727294921875,0.7159423828125,-72.08251953125,11.16943359375,-18.12744140625
22777.813811291,0.2362060546875,0.1727294921875,0.7159423828125,-72.08251953125,9.46044921875,-18.12744140625
22777.813897333,0.2698974609375,0.1727294921875,0.7159423828125,-72.08251953125,9.46044921875,-18.12744140625
22777.82253475,0.2698974609375,0.1727294921875,0.8106689453125,-72.08251953125,9.46044921875,-18.12744140625
22777.822811416,0.2698974609375,0.1727294921875,0.8106689453125,-78.369140625,9.46044921875,-18.12744140625
22777.822964083,0.2698974609375,0.1727294921875,0.8106689453125,-78.369140625,23.86474609375,-18.12744140625
22777.851336,0.2305908203125,0.1727294921875,0.8106689453125,-78.369140625,23.86474609375,-18.12744140625
22777.85324675,0.2305908203125,0.3558349609375,0.8106689453125,-78.369140625,23.86474609375,-18.12744140625
22777.853511625,0.2305908203125,0.3558349609375,0.6361083984375,-78.369140625,23.86474609375,-18.12744140625
22777.853642333,0.2305908203125,0.3558349609375,0.6361083984375,-77.33154296875,23.86474609375,-18.12744140625
22777.867089541,0.2080078125,0.3558349609375,0.6361083984375,-77.33154296875,23.86474609375,-18.12744140625
22777.867326458,0.2080078125,0.3931884765625,0.6361083984375,-77.33154296875,23.86474609375,-18.12744140625
22777.867450958,0.2080078125,0.3931884765625,0.5853271484375,-77.33154296875,23.86474609375,-18.12744140625
22777.882421666,0.2080078125,0.3931884765625,0.5853271484375,-77.33154296875,32.77587890625,-18.12744140625
22777.882610916,0.2080078125,0.3931884765625,0.5853271484375,-77.33154296875,32.77587890625,-36.07177734375
22777.902582833,0.3446044921875,0.3931884765625,0.5853271484375,-77.33154296875,32.77587890625,-36.07177734375
22777.902663666,0.3446044921875,0.6885986328125,0.5853271484375,-77.33154296875,32.77587890625,-36.07177734375
22777.902735958,0.3446044921875,0.6885986328125,0.7666015625,-77.33154296875,32.77587890625,-36.07177734375
22777.91241425,0.3446044921875,0.6885986328125,0.7666015625,-77.33154296875,33.63037109375,-36.07177734375
22777.912644666,0.3446044921875,0.6885986328125,0.7666015625,-77.33154296875,33.63037109375,-32.5927734375
22777.942218375,0.335693359375,0.6885986328125,0.7666015625,-77.33154296875,33.63037109375,-32.5927734375
22777.94371675,0.335693359375,0.5521240234375,0.7666015625,-77.33154296875,33.63037109375,-32.5927734375
22777.944000666,0.335693359375,0.5521240234375,0.6505126953125,-77.33154296875,33.63037109375,-32.5927734375
22777.944132333,0.335693359375,0.5521240234375,0.6505126953125,-77.33154296875,28.50341796875,-32.5927734375
22777.969082791,0.31982421875,0.5521240234375,0.6505126953125,-77.33154296875,28.50341796875,-32.5927734375
22777.969162,0.31982421875,0.6080322265625,0.6505126953125,-77.33154296875,28.50341796875,-32.5927734375
22777.96923275,0.31982421875,0.6080322265625,0.4571533203125,-77.33154296875,28.50341796875,-32.5927734375
22777.972202625,0.31982421875,0.6080322265625,0.4571533203125,-77.33154296875,32.71484375,-32.5927734375
22777.972356875,0.31982421875,0.6080322265625,0.4571533203125,-77.33154296875,32.71484375,-28.25927734375
22778.00207625,0.393798828125,0.6080322265625,0.4571533203125,-77.33154296875,32.71484375,-28.25927734375
22778.002394583,0.393798828125,0.74853515625,0.4571533203125,-77.33154296875,32.71484375,-28.25927734375
22778.003178916,0.393798828125,0.74853515625,0.526123046875,-77.33154296875,32.71484375,-28.25927734375
22778.003350166,0.393798828125,0.74853515625,0.526123046875,-100.7080078125,32.71484375,-28.25927734375
22778.078066666,0.457275390625,0.74853515625,0.526123046875,-100.7080078125,32.71484375,-28.25927734375
22778.078341,0.457275390625,0.7291259765625,0.526123046875,-100.7080078125,32.71484375,-28.25927734375
22778.092948666,0.457275390625,0.7291259765625,0.5533447265625,-100.7080078125,32.71484375,-28.25927734375
22778.093296666,0.457275390625,0.7291259765625,0.5533447265625,-100.7080078125,43.701171875,-28.25927734375
22778.093462666,0.4671630859375,0.7291259765625,0.5533447265625,-100.7080078125,43.701171875,-28.25927734375
22778.119640833,0.4671630859375,0.7291259765625,0.456298828125,-100.7080078125,43.701171875,-28.25927734375
22778.119742958,0.4671630859375,0.7291259765625,0.456298828125,-79.833984375,43.701171875,-28.25927734375
22778.119815583,0.4671630859375,0.7291259765625,0.456298828125,-79.833984375,39.1845703125,-28.25927734375
22778.137483791,0.4617919921875,0.7291259765625,0.456298828125,-79.833984375,39.1845703125,-28.25927734375
22778.137625291,0.4617919921875,0.8043212890625,0.456298828125,-79.833984375,39.1845703125,-28.25927734375
22778.138341791,0.4617919921875,0.8043212890625,0.37451171875,-79.833984375,39.1845703125,-28.25927734375
22778.138473666,0.4617919921875,0.8043212890625,0.37451171875,-24.658203125,39.1845703125,-28.25927734375
22778.152595208,0.4739990234375,0.8043212890625,0.37451171875,-24.658203125,39.1845703125,-28.25927734375
22778.152674875,0.4739990234375,0.5701904296875,0.37451171875,-24.658203125,39.1845703125,-28.25927734375
22778.152744875,0.4739990234375,0.5701904296875,0.497802734375,-24.658203125,39.1845703125,-28.25927734375
22778.169419166,0.4739990234375,0.5701904296875,0.497802734375,-24.658203125,11.41357421875,-28.25927734375
22778.1694965,0.4739990234375,0.5701904296875,0.497802734375,-24.658203125,11.41357421875,-18.9208984375
22778.197305208,0.517578125,0.5701904296875,0.497802734375,-24.658203125,11.41357421875,-18.9208984375
22778.198711458,0.517578125,0.7283935546875,0.497802734375,-24.658203125,11.41357421875,-18.9208984375
22778.198968166,0.517578125,0.7283935546875,0.6676025390625,-24.658203125,11.41357421875,-18.9208984375
22778.199094375,0.517578125,0.7283935546875,0.6676025390625,-24.658203125,2.25830078125,-18.9208984375
22778.227477916,0.4674072265625,0.7283935546875,0.6676025390625,-24.658203125,2.25830078125,-18.9208984375
22778.227683375,0.4674072265625,0.6810302734375,0.6676025390625,-24.658203125,2.25830078125,-18.9208984375
22778.228343333,0.4674072265625,0.6810302734375,0.5592041015625,-24.658203125,2.25830078125,-18.9208984375
22778.228513958,0.4674072265625,0.6810302734375,0.5592041015625,-24.658203125,-22.216796875,-18.9208984375
22778.257784916,0.5078125,0.6810302734375,0.5592041015625,-24.658203125,-22.216796875,-18.9208984375
22778.261698,0.5078125,0.7264404296875,0.5592041015625,-24.658203125,-22.216796875,-18.9208984375
22778.261998208,0.5078125,0.7264404296875,0.4185791015625,-24.658203125,-22.216796875,-18.9208984375
22778.262086833,0.5078125,0.7264404296875,0.4185791015625,-29.4189453125,-22.216796875,-18.9208984375
22778.290793833,0.570068359375,0.7264404296875,0.4185791015625,-29.4189453125,-22.216796875,-18.9208984375
22778.291072958,0.570068359375,0.775146484375,0.4185791015625,-29.4189453125,-22.216796875,-18.9208984375
22778.29119025,0.570068359375,0.775146484375,0.6756591796875,-29.4189453125,-22.216796875,-18.9208984375
22778.291265291,0.570068359375,0.775146484375,0.6756591796875,-30.517578125,-22.216796875,-18.9208984375
22778.316841958,0.491943359375,0.775146484375,0.6756591796875,-30.517578125,-22.216796875,-18.9208984375
22778.320967833,0.491943359375,0.966552734375,0.6756591796875,-30.517578125,-22.216796875,-18.9208984375
22778.321065416,0.491943359375,0.966552734375,0.708740234375,-30.517578125,-22.216796875,-18.9208984375
22778.377470208,0.491943359375,0.966552734375,0.708740234375,-30.517578125,-22.64404296875,-18.9208984375
22778.377613916,0.491943359375,0.966552734375,0.708740234375,-30.517578125,-22.64404296875,-23.74267578125
22778.377671375,0.4842529296875,0.966552734375,0.708740234375,-30.517578125,-22.64404296875,-23.74267578125
22778.392532791,0.4842529296875,0.966552734375,0.502197265625,-30.517578125,-22.64404296875,-23.74267578125
22778.392683875,0.4842529296875,0.966552734375,0.502197265625,69.82421875,-22.64404296875,-23.74267578125
22778.392761125,0.4842529296875,0.966552734375,0.502197265625,69.82421875,-16.66259765625,-23.74267578125
22778.407086958,0.612060546875,0.966552734375,0.502197265625,69.82421875,-16.66259765625,-23.74267578125
22778.407176041,0.612060546875,0.8033447265625,0.502197265625,69.82421875,-16.66259765625,-23.74267578125
22778.467051541,0.612060546875,0.8033447265625,0.6007080078125,69.82421875,-16.66259765625,-23.74267578125
22778.467167208,0.612060546875,0.8033447265625,0.6007080078125,69.82421875,-15.68603515625,-23.74267578125
22778.468049041,0.612060546875,0.8033447265625,0.6007080078125,69.82421875,-15.68603515625,1.8310546875
22778.468174875,0.593017578125,0.8033447265625,0.6007080078125,69.82421875,-15.68603515625,1.8310546875
22778.484564833,0.593017578125,0.8033447265625,0.4921875,69.82421875,-15.68603515625,1.8310546875
22778.484618041,0.593017578125,0.8033447265625,0.4921875,43.02978515625,-15.68603515625,1.8310546875
22778.484664333,0.593017578125,0.8033447265625,0.4921875,43.02978515625,-26.91650390625,1.8310546875
22778.5014275,0.6015625,0.8033447265625,0.4921875,43.02978515625,-26.91650390625,1.8310546875
22778.501478,0.6015625,0.724365234375,0.4921875,43.02978515625,-26.91650390625,1.8310546875
22778.501524375,0.6015625,0.724365234375,0.5015869140625,43.02978515625,-26.91650390625,1.8310546875
22778.526230416,0.6015625,0.724365234375,0.5015869140625,43.02978515625,-33.26416015625,1.8310546875
22778.557077041,0.6015625,0.724365234375,0.5015869140625,43.02978515625,-33.26416015625,-4.45556640625
22778.557201583,0.615478515625,0.724365234375,0.5015869140625,43.02978515625,-33.26416015625,-4.45556640625
22778.558034291,0.615478515625,0.724365234375,0.4344482421875,43.02978515625,-33.26416015625,-4.45556640625
22778.55815225,0.615478515625,0.724365234375,0.4344482421875,43.02978515625,-24.90234375,-4.45556640625
22778.586915083,0.64501953125,0.724365234375,0.4344482421875,43.02978515625,-24.90234375,-4.45556640625
22778.588491666,0.64501953125,0.6488037109375,0.4344482421875,43.02978515625,-24.90234375,-4.45556640625
22778.588626958,0.64501953125,0.6488037109375,0.823974609375,43.02978515625,-24.90234375,-4.45556640625
22778.588713583,0.64501953125,0.6488037109375,0.823974609375,42.29736328125,-24.90234375,-4.45556640625
22778.60243425,0.647216796875,0.6488037109375,0.823974609375,42.29736328125,-24.90234375,-4.45556640625
22778.602557333,0.647216796875,0.6644287109375,0.823974609375,42.29736328125,-24.90234375,-4.45556640625
22778.602629041,0.647216796875,0.6644287109375,0.7783203125,42.29736328125,-24.90234375,-4.45556640625
22778.618013541,0.647216796875,0.6644287109375,0.7783203125,42.29736328125,-43.76220703125,-4.45556640625
22778.618062625,0.647216796875,0.6644287109375,0.7783203125,42.29736328125,-43.76220703125,11.71875
22778.677250833,0.597900390625,0.6644287109375,0.7783203125,42.29736328125,-43.76220703125,11.71875
22778.677399083,0.597900390625,0.4735107421875,0.7783203125,42.29736328125,-43.76220703125,11.71875
22778.680404083,0.597900390625,0.4735107421875,0.8670654296875,42.29736328125,-43.76220703125,11.71875
22778.721793625,0.597900390625,0.4735107421875,0.8670654296875,42.29736328125,-45.7763671875,11.71875
22778.722528666,0.597900390625,0.4735107421875,0.8670654296875,42.29736328125,-45.7763671875,-0.3662109375
22778.737516333,0.7431640625,0.4735107421875,0.8670654296875,42.29736328125,-45.7763671875,-0.3662109375
22778.737725333,0.7431640625,0.699462890625,0.8670654296875,42.29736328125,-45.7763671875,-0.3662109375
22778.737839166,0.7431640625,0.699462890625,0.8670654296875,42.29736328125,-65.85693359375,-0.3662109375
22778.7383805,0.7431640625,0.699462890625,0.8670654296875,42.29736328125,-65.85693359375,28.076171875
22778.752764458,0.6558837890625,0.699462890625,0.8670654296875,42.29736328125,-65.85693359375,28.076171875
22778.752842208,0.6558837890625,0.61376953125,0.8670654296875,42.29736328125,-65.85693359375,28.076171875
22778.752913333,0.6558837890625,0.61376953125,1.186767578125,42.29736328125,-65.85693359375,28.076171875
22778.769085791,0.6558837890625,0.61376953125,1.186767578125,42.29736328125,-94.3603515625,28.076171875
22778.769165041,0.6558837890625,0.61376953125,1.186767578125,42.29736328125,-94.3603515625,31.8603515625
22778.786121833,0.6015625,0.61376953125,1.186767578125,42.29736328125,-94.3603515625,31.8603515625
22778.78619675,0.6015625,0.75390625,1.186767578125,42.29736328125,-94.3603515625,31.8603515625
22778.812704833,0.6015625,0.75390625,1.236083984375,42.29736328125,-94.3603515625,31.8603515625
22778.819295333,0.6015625,0.75390625,1.236083984375,42.29736328125,-120.17822265625,31.8603515625
22778.827666375,0.6015625,0.75390625,1.236083984375,42.29736328125,-120.17822265625,38.51318359375
22778.82798075,0.5103759765625,0.75390625,1.236083984375,42.29736328125,-120.17822265625,38.51318359375
22778.828091416,0.5103759765625,0.75390625,1.1519775390625,42.29736328125,-120.17822265625,38.51318359375
22778.828362958,0.5103759765625,0.75390625,1.1519775390625,45.59326171875,-120.17822265625,38.51318359375
22778.843090708,0.5103759765625,0.75390625,1.1519775390625,45.59326171875,-120.17822265625,48.095703125
22778.872206208,0.3819580078125,0.75390625,1.1519775390625,45.59326171875,-120.17822265625,48.095703125
22778.87239225,0.3819580078125,0.679931640625,1.1519775390625,45.59326171875,-120.17822265625,48.095703125
22778.873237958,0.3819580078125,0.679931640625,1.0203857421875,45.59326171875,-120.17822265625,48.095703125
22778.873364,0.3819580078125,0.679931640625,1.0203857421875,60.11962890625,-120.17822265625,48.095703125
22778.887223833,0.25439453125,0.679931640625,1.0203857421875,60.11962890625,-120.17822265625,48.095703125
22778.88744375,0.25439453125,0.6683349609375,1.0203857421875,60.11962890625,-120.17822265625,48.095703125
22778.887537708,0.25439453125,0.6683349609375,0.8531494140625,60.11962890625,-120.17822265625,48.095703125
22778.904618416,0.25439453125,0.6683349609375,0.8531494140625,60.11962890625,-152.16064453125,48.095703125
22778.904781416,0.25439453125,0.6683349609375,0.8531494140625,60.11962890625,-152.16064453125,64.39208984375
22778.978250083,0.1500244140625,0.6683349609375,0.8531494140625,60.11962890625,-152.16064453125,64.39208984375
22778.978594708,0.1500244140625,0.63134765625,0.8531494140625,60.11962890625,-152.16064453125,64.39208984375
22778.992900208,0.1500244140625,0.63134765625,0.776611328125,60.11962890625,-152.16064453125,64.39208984375
22779.009589541,0.1500244140625,0.63134765625,0.776611328125,60.11962890625,-155.45654296875,64.39208984375
22779.009718875,0.0274658203125,0.63134765625,0.776611328125,60.11962890625,-155.45654296875,64.39208984375
22779.00983225,0.0274658203125,0.5157470703125,0.776611328125,60.11962890625,-155.45654296875,64.39208984375
22779.051912583,0.0274658203125,0.5157470703125,0.776611328125,57.18994140625,-155.45654296875,64.39208984375
22779.05209775,0.0274658203125,0.5157470703125,0.776611328125,57.18994140625,-158.447265625,64.39208984375
22779.069212875,0.0274658203125,0.5157470703125,0.776611328125,57.18994140625,-158.447265625,72.81494140625
22779.097636666,-0.2176513671875,0.5157470703125,0.776611328125,57.18994140625,-158.447265625,72.81494140625
22779.097732583,-0.2176513671875,0.5157470703125,0.776611328125,36.56005859375,-158.447265625,72.81494140625
22779.119537125,-0.2176513671875,0.5157470703125,0.776611328125,36.56005859375,-158.447265625,62.98828125
22779.119634833,-0.40087890625,0.5157470703125,0.776611328125,36.56005859375,-158.447265625,62.98828125
22779.119713208,-0.40087890625,-0.1146240234375,0.776611328125,36.56005859375,-158.447265625,62.98828125
22779.127573541,-0.40087890625,-0.1146240234375,0.142333984375,36.56005859375,-158.447265625,62.98828125
22779.127779333,-0.40087890625,-0.1146240234375,0.142333984375,36.56005859375,-158.447265625,33.5693359375
22779.157342666,-0.4427490234375,-0.1146240234375,0.142333984375,36.56005859375,-158.447265625,33.5693359375
22779.161231416,-0.4427490234375,-0.14306640625,0.142333984375,36.56005859375,-158.447265625,33.5693359375
22779.161453875,-0.4427490234375,-0.14306640625,0.17578125,36.56005859375,-158.447265625,33.5693359375
22779.172001583,-0.4427490234375,-0.14306640625,0.17578125,36.56005859375,-65.5517578125,33.5693359375
22779.185640208,-0.4427490234375,-0.14306640625,0.17578125,36.56005859375,-65.5517578125,11.8408203125
22779.186778416,-0.4853515625,-0.14306640625,0.17578125,36.56005859375,-65.5517578125,11.8408203125
22779.278413458,-0.4853515625,-0.1417236328125,0.17578125,36.56005859375,-65.5517578125,11.8408203125
22779.292581916,-0.4853515625,-0.1417236328125,0.1893310546875,36.56005859375,-65.5517578125,11.8408203125
22779.307952583,-0.4853515625,-0.1417236328125,0.1893310546875,36.56005859375,-37.353515625,11.8408203125
22779.308257583,-0.4853515625,-0.1417236328125,0.1893310546875,36.56005859375,-37.353515625,-5.43212890625
22779.30867775,-0.4853515625,-0.1417236328125,0.274658203125,36.56005859375,-37.353515625,-5.43212890625
22779.308798416,-0.4853515625,-0.1417236328125,0.274658203125,36.56005859375,-20.99609375,-5.43212890625
22779.337662583,-0.5849609375,-0.1417236328125,0.274658203125,36.56005859375,-20.99609375,-5.43212890625
22779.3379575,-0.5849609375,0.03271484375,0.274658203125,36.56005859375,-20.99609375,-5.43212890625
22779.338320708,-0.5849609375,0.03271484375,0.53125,36.56005859375,-20.99609375,-5.43212890625
22779.338422625,-0.5849609375,0.03271484375,0.53125,26.85546875,-20.99609375,-5.43212890625
22779.352760958,-0.598388671875,0.03271484375,0.53125,26.85546875,-20.99609375,-5.43212890625
22779.353079625,-0.598388671875,0.0889892578125,0.53125,26.85546875,-20.99609375,-5.43212890625
22779.353238208,-0.598388671875,0.0889892578125,0.590087890625,26.85546875,-20.99609375,-5.43212890625
22779.367508,-0.598388671875,0.0889892578125,0.590087890625,26.85546875,42.236328125,-5.43212890625
22779.367753916,-0.598388671875,0.0889892578125,0.590087890625,26.85546875,42.236328125,-49.74365234375
22779.39746325,-0.5537109375,0.0889892578125,0.590087890625,26.85546875,42.236328125,-49.74365234375
22779.398879208,-0.5537109375,0.054931640625,0.590087890625,26.85546875,42.236328125,-49.74365234375
22779.399070958,-0.5537109375,0.054931640625,0.627197265625,26.85546875,42.236328125,-49.74365234375
22779.399166583,-0.5537109375,0.054931640625,0.627197265625,30.70068359375,42.236328125,-49.74365234375
22779.419681,-0.5213623046875,0.054931640625,0.627197265625,30.70068359375,42.236328125,-49.74365234375
22779.419776833,-0.5213623046875,0.157470703125,0.627197265625,30.70068359375,42.236328125,-49.74365234375
22779.419863791,-0.5213623046875,0.157470703125,0.7156982421875,30.70068359375,42.236328125,-49.74365234375
22779.427568083,-0.5213623046875,0.157470703125,0.7156982421875,30.70068359375,59.814453125,-49.74365234375
22779.427776833,-0.5213623046875,0.157470703125,0.7156982421875,30.70068359375,59.814453125,-58.65478515625
22779.442754541,-0.5255126953125,0.157470703125,0.7156982421875,30.70068359375,59.814453125,-58.65478515625
22779.442985458,-0.5255126953125,0.1881103515625,0.7156982421875,30.70068359375,59.814453125,-58.65478515625
22779.443109708,-0.5255126953125,0.1881103515625,0.7723388671875,30.70068359375,59.814453125,-58.65478515625
22779.45782325,-0.5255126953125,0.1881103515625,0.7723388671875,30.70068359375,60.302734375,-58.65478515625
22779.458021958,-0.5255126953125,0.1881103515625,0.7723388671875,30.70068359375,60.302734375,-59.2041015625
22779.472429916,-0.4510498046875,0.1881103515625,0.7723388671875,30.70068359375,60.302734375,-59.2041015625
22779.472666583,-0.4510498046875,0.1912841796875,0.7723388671875,30.70068359375,60.302734375,-59.2041015625
22779.472798333,-0.4510498046875,0.1912841796875,0.77197265625,30.70068359375,60.302734375,-59.2041015625
22779.502155875,-0.4510498046875,0.1912841796875,0.77197265625,30.70068359375,61.5234375,-59.2041015625
22779.502407208,-0.4510498046875,0.1912841796875,0.77197265625,30.70068359375,61.5234375,-59.5703125
22779.5196725,-0.45849609375,0.1912841796875,0.77197265625,30.70068359375,61.5234375,-59.5703125
22779.519770875,-0.45849609375,0.2696533203125,0.77197265625,30.70068359375,61.5234375,-59.5703125
22779.519858166,-0.45849609375,0.2696533203125,0.772216796875,30.70068359375,61.5234375,-59.5703125
22779.592222166,-0.4061279296875,0.2696533203125,0.772216796875,30.70068359375,61.5234375,-59.5703125
22779.60818475,-0.4061279296875,0.2088623046875,0.772216796875,30.70068359375,61.5234375,-59.5703125
22779.60849075,-0.4061279296875,0.2088623046875,0.777587890625,30.70068359375,61.5234375,-59.5703125
22779.613088416,-0.4061279296875,0.2088623046875,0.777587890625,30.70068359375,70.6787109375,-59.5703125
22779.622900166,-0.215576171875,0.2088623046875,0.777587890625,30.70068359375,70.6787109375,-59.5703125
22779.623279166,-0.215576171875,0.31982421875,0.777587890625,30.70068359375,70.6787109375,-59.5703125
22779.623426625,-0.215576171875,0.31982421875,0.83740234375,30.70068359375,70.6787109375,-59.5703125
22779.65243825,-0.215576171875,0.31982421875,0.83740234375,30.70068359375,70.6787109375,-47.30224609375
22779.652633833,-0.1640625,0.31982421875,0.83740234375,30.70068359375,70.6787109375,-47.30224609375
22779.653162041,-0.1640625,0.406982421875,0.83740234375,30.70068359375,70.6787109375,-47.30224609375
22779.653350958,-0.1640625,0.406982421875,0.82080078125,30.70068359375,70.6787109375,-47.30224609375
22779.669279416,-0.1640625,0.406982421875,0.82080078125,30.70068359375,69.091796875,-47.30224609375
22779.686582,-0.1640625,0.406982421875,0.82080078125,30.70068359375,69.091796875,-41.1376953125
22779.6975985,-0.044189453125,0.406982421875,0.82080078125,30.70068359375,69.091796875,-41.1376953125
22779.702739458,-0.044189453125,0.364990234375,0.82080078125,30.70068359375,69.091796875,-41.1376953125
22779.742477458,-0.044189453125,0.364990234375,0.81591796875,30.70068359375,69.091796875,-41.1376953125
22779.742707375,-0.044189453125,0.364990234375,0.81591796875,30.70068359375,76.904296875,-41.1376953125
22779.743414833,-0.044189453125,0.364990234375,0.81591796875,30.70068359375,76.904296875,-34.36279296875
22779.743650375,-0.015380859375,0.364990234375,0.81591796875,30.70068359375,76.904296875,-34.36279296875
22779.769120833,-0.015380859375,0.364990234375,0.8447265625,30.70068359375,76.904296875,-34.36279296875
22779.769203375,-0.015380859375,0.364990234375,0.8447265625,-31.55517578125,76.904296875,-34.36279296875
22779.769276125,-0.015380859375,0.364990234375,0.8447265625,-31.55517578125,73.73046875,-34.36279296875
22779.772474791,0.1746826171875,0.364990234375,0.8447265625,-31.55517578125,73.73046875,-34.36279296875
22779.772654708,0.1746826171875,0.504638671875,0.8447265625,-31.55517578125,73.73046875,-34.36279296875
22779.772755583,0.1746826171875,0.504638671875,0.8795166015625,-31.55517578125,73.73046875,-34.36279296875
22779.802331125,0.1746826171875,0.504638671875,0.8795166015625,-31.55517578125,76.7822265625,-34.36279296875
22779.802551458,0.1746826171875,0.504638671875,0.8795166015625,-31.55517578125,76.7822265625,-23.13232421875
22779.803127791,0.125,0.504638671875,0.8795166015625,-31.55517578125,76.7822265625,-23.13232421875
22779.803301333,0.125,0.503662109375,0.8795166015625,-31.55517578125,76.7822265625,-23.13232421875
22779.819012708,0.125,0.503662109375,0.8795166015625,-31.55517578125,75.3173828125,-23.13232421875
22779.819094125,0.125,0.503662109375,0.8795166015625,-31.55517578125,75.3173828125,-17.76123046875
22779.879438416,0.14453125,0.503662109375,0.8795166015625,-31.55517578125,75.3173828125,-17.76123046875
22779.879745875,0.14453125,0.5531005859375,0.8795166015625,-31.55517578125,75.3173828125,-17.76123046875
22779.87984825,0.14453125,0.5531005859375,1.0006103515625,-31.55517578125,75.3173828125,-17.76123046875
22779.895043375,0.14453125,0.5531005859375,1.0006103515625,-31.55517578125,82.763671875,-17.76123046875
22779.895305083,0.14453125,0.5531005859375,1.0006103515625,-31.55517578125,82.763671875,-11.29150390625
22779.938562,0.1851806640625,0.5531005859375,1.0006103515625,-31.55517578125,82.763671875,-11.29150390625
22779.939022041,0.1851806640625,0.5491943359375,1.0006103515625,-31.55517578125,82.763671875,-11.29150390625
22779.939147875,0.1851806640625,0.5491943359375,1.0274658203125,-31.55517578125,82.763671875,-11.29150390625
22779.93939,0.1851806640625,0.5491943359375,1.0274658203125,-42.05322265625,82.763671875,-11.29150390625
22779.983106208,0.1939697265625,0.5491943359375,1.0274658203125,-42.05322265625,82.763671875,-11.29150390625
22779.983352416,0.1939697265625,0.5489501953125,1.0274658203125,-42.05322265625,82.763671875,-11.29150390625
22779.983508958,0.1939697265625,0.5489501953125,0.991943359375,-42.05322265625,82.763671875,-11.29150390625
22779.983698666,0.1939697265625,0.5489501953125,0.991943359375,-42.05322265625,77.1484375,-11.29150390625
22780.002647708,0.3089599609375,0.5489501953125,0.991943359375,-42.05322265625,77.1484375,-11.29150390625
22780.002731208,0.3089599609375,0.5369873046875,0.991943359375,-42.05322265625,77.1484375,-11.29150390625
22780.002803833,0.3089599609375,0.5369873046875,0.94091796875,-42.05322265625,77.1484375,-11.29150390625
22780.012432583,0.3089599609375,0.5369873046875,0.94091796875,-42.05322265625,71.22802734375,-11.29150390625
22780.012610708,0.3089599609375,0.5369873046875,0.94091796875,-42.05322265625,71.22802734375,-9.521484375
22780.042287416,0.3955078125,0.5369873046875,0.94091796875,-42.05322265625,71.22802734375,-9.521484375
22780.042457875,0.3955078125,0.6170654296875,0.94091796875,-42.05322265625,71.22802734375,-9.521484375
22780.043188,0.3955078125,0.6170654296875,0.84912109375,-42.05322265625,71.22802734375,-9.521484375
22780.043376583,0.3955078125,0.6170654296875,0.84912109375,-40.95458984375,71.22802734375,-9.521484375
22780.057561041,0.452880859375,0.6170654296875,0.84912109375,-40.95458984375,71.22802734375,-9.521484375
22780.057808958,0.452880859375,0.680908203125,0.84912109375,-40.95458984375,71.22802734375,-9.521484375
22780.057934166,0.452880859375,0.680908203125,0.8408203125,-40.95458984375,71.22802734375,-9.521484375
22780.086074833,0.452880859375,0.680908203125,0.8408203125,-40.95458984375,51.7578125,-9.521484375
22780.086156166,0.452880859375,0.680908203125,0.8408203125,-40.95458984375,51.7578125,1.52587890625
22780.087310416,0.3612060546875,0.680908203125,0.8408203125,-40.95458984375,51.7578125,1.52587890625
22780.087538083,0.3612060546875,0.740478515625,0.8408203125,-40.95458984375,51.7578125,1.52587890625
22780.087644625,0.3612060546875,0.740478515625,0.95068359375,-40.95458984375,51.7578125,1.52587890625
22780.102476125,0.3612060546875,0.740478515625,0.95068359375,-40.95458984375,45.10498046875,1.52587890625
22780.102640625,0.3612060546875,0.740478515625,0.95068359375,-40.95458984375,45.10498046875,7.01904296875
22780.119036333,0.3985595703125,0.740478515625,0.95068359375,-40.95458984375,45.10498046875,7.01904296875
22780.119117291,0.3985595703125,0.6248779296875,0.95068359375,-40.95458984375,45.10498046875,7.01904296875
22780.119188166,0.3985595703125,0.6248779296875,0.7027587890625,-40.95458984375,45.10498046875,7.01904296875
22780.177250041,0.3985595703125,0.6248779296875,0.7027587890625,-40.95458984375,53.3447265625,7.01904296875
22780.177441333,0.3985595703125,0.6248779296875,0.7027587890625,-40.95458984375,53.3447265625,16.90673828125
22780.178003041,0.4942626953125,0.6248779296875,0.7027587890625,-40.95458984375,53.3447265625,16.90673828125
22780.202496708,0.4942626953125,0.6248779296875,0.811279296875,-40.95458984375,53.3447265625,16.90673828125
22780.202583666,0.4942626953125,0.6248779296875,0.811279296875,-30.517578125,53.3447265625,16.90673828125
22780.202656916,0.4942626953125,0.6248779296875,0.811279296875,-30.517578125,46.630859375,16.90673828125
22780.207597125,0.3408203125,0.6248779296875,0.811279296875,-30.517578125,46.630859375,16.90673828125
22780.222571208,0.3408203125,0.62939453125,0.811279296875,-30.517578125,46.630859375,16.90673828125
22780.222717916,0.3408203125,0.62939453125,0.813232421875,-30.517578125,46.630859375,16.90673828125
22780.223977,0.3408203125,0.62939453125,0.813232421875,-30.517578125,26.3671875,16.90673828125
22780.224105041,0.3408203125,0.62939453125,0.813232421875,-30.517578125,26.3671875,25.81787109375
22780.23721075,0.3583984375,0.62939453125,0.813232421875,-30.517578125,26.3671875,25.81787109375
22780.237399,0.3583984375,0.521728515625,0.813232421875,-30.517578125,26.3671875,25.81787109375
22780.237479541,0.3583984375,0.521728515625,0.7713623046875,-30.517578125,26.3671875,25.81787109375
NEW_REP,,,,,,
22780.252329166,0.3583984375,0.521728515625,0.7713623046875,-30.517578125,29.84619140625,25.81787109375
22780.252472041,0.3583984375,0.521728515625,0.7713623046875,-30.517578125,29.84619140625,22.27783203125
22780.268942166,0.4827880859375,0.521728515625,0.7713623046875,-30.517578125,29.84619140625,22.27783203125
22780.269009916,0.4827880859375,0.6005859375,0.7713623046875,-30.517578125,29.84619140625,22.27783203125
22780.26907075,0.4827880859375,0.6005859375,0.6552734375,-30.517578125,29.84619140625,22.27783203125
22780.285708375,0.4827880859375,0.6005859375,0.6552734375,-30.517578125,18.12744140625,22.27783203125
22780.285779,0.4827880859375,0.6005859375,0.6552734375,-30.517578125,18.12744140625,9.033203125
22780.3024315,0.4027099609375,0.6005859375,0.6552734375,-30.517578125,18.12744140625,9.033203125
22780.302499,0.4027099609375,0.60791015625,0.6552734375,-30.517578125,18.12744140625,9.033203125
22780.302589416,0.4027099609375,0.60791015625,0.499755859375,-30.517578125,18.12744140625,9.033203125
22780.31266075,0.4027099609375,0.60791015625,0.499755859375,-30.517578125,20.01953125,9.033203125
22780.318800875,0.4027099609375,0.60791015625,0.499755859375,-30.517578125,20.01953125,8.60595703125
22780.327415791,0.3841552734375,0.60791015625,0.499755859375,-30.517578125,20.01953125,8.60595703125
22780.327679791,0.3841552734375,0.5670166015625,0.499755859375,-30.517578125,20.01953125,8.60595703125
22780.32777175,0.3841552734375,0.5670166015625,0.6552734375,-30.517578125,20.01953125,8.60595703125
22780.342881125,0.3841552734375,0.5670166015625,0.6552734375,-30.517578125,33.26416015625,8.60595703125
22780.343059375,0.3841552734375,0.5670166015625,0.6552734375,-30.517578125,33.26416015625,8.11767578125
22780.357699708,0.3165283203125,0.5670166015625,0.6552734375,-30.517578125,33.26416015625,8.11767578125
22780.357844,0.3165283203125,0.544189453125,0.6552734375,-30.517578125,33.26416015625,8.11767578125
22780.358614583,0.3165283203125,0.544189453125,0.50537109375,-30.517578125,33.26416015625,8.11767578125
22780.372353291,0.3165283203125,0.544189453125,0.50537109375,-30.517578125,28.6865234375,8.11767578125
22780.372490291,0.3165283203125,0.544189453125,0.50537109375,-30.517578125,28.6865234375,5.2490234375
22780.388034166,0.34765625,0.544189453125,0.50537109375,-30.517578125,28.6865234375,5.2490234375
22780.388225958,0.34765625,0.5501708984375,0.50537109375,-30.517578125,28.6865234375,5.2490234375
22780.388322625,0.34765625,0.5501708984375,0.5489501953125,-30.517578125,28.6865234375,5.2490234375
22780.402260916,0.34765625,0.5501708984375,0.5489501953125,-30.517578125,22.15576171875,5.2490234375
22780.402381625,0.34765625,0.5501708984375,0.5489501953125,-30.517578125,22.15576171875,-7.080078125
22780.41867825,0.344482421875,0.5501708984375,0.5489501953125,-30.517578125,22.15576171875,-7.080078125
22780.418744833,0.344482421875,0.560791015625,0.5489501953125,-30.517578125,22.15576171875,-7.080078125
22780.418803708,0.344482421875,0.560791015625,0.66796875,-30.517578125,22.15576171875,-7.080078125
22780.4771495,0.344482421875,0.560791015625,0.66796875,-30.517578125,14.83154296875,-7.080078125
22780.50251725,0.344482421875,0.560791015625,0.66796875,-30.517578125,14.83154296875,-17.27294921875
22780.502585208,0.385009765625,0.560791015625,0.66796875,-30.517578125,14.83154296875,-17.27294921875
22780.502645791,0.385009765625,0.560791015625,0.6290283203125,-30.517578125,14.83154296875,-17.27294921875
22780.502707083,0.385009765625,0.560791015625,0.6290283203125,13.0615234375,14.83154296875,-17.27294921875
22780.502765375,0.385009765625,0.560791015625,0.6290283203125,13.0615234375,15.7470703125,-17.27294921875
22780.507952625,0.45263671875,0.560791015625,0.6290283203125,13.0615234375,15.7470703125,-17.27294921875
22780.508148125,0.45263671875,0.888427734375,0.6290283203125,13.0615234375,15.7470703125,-17.27294921875
22780.508253458,0.45263671875,0.888427734375,0.9385986328125,13.0615234375,15.7470703125,-17.27294921875
22780.523920291,0.45263671875,0.888427734375,0.9385986328125,13.0615234375,18.49365234375,-17.27294921875
22780.524086041,0.45263671875,0.888427734375,0.9385986328125,13.0615234375,18.49365234375,-29.96826171875
22780.538021291,0.6517333984375,0.888427734375,0.9385986328125,13.0615234375,18.49365234375,-29.96826171875
22780.538172541,0.6517333984375,0.989990234375,0.9385986328125,13.0615234375,18.49365234375,-29.96826171875
22780.539693291,0.6517333984375,0.989990234375,1.0791015625,13.0615234375,18.49365234375,-29.96826171875
22780.553882208,0.6517333984375,0.989990234375,1.0791015625,13.0615234375,2.685546875,-29.96826171875
22780.554029875,0.6517333984375,0.989990234375,1.0791015625,13.0615234375,2.685546875,-12.8173828125
22780.568891291,0.453125,0.989990234375,1.0791015625,13.0615234375,2.685546875,-12.8173828125
22780.568948875,0.453125,0.7674560546875,1.0791015625,13.0615234375,2.685546875,-12.8173828125
22780.569000625,0.453125,0.7674560546875,1.0450439453125,13.0615234375,2.685546875,-12.8173828125
22780.585365416,0.453125,0.7674560546875,1.0450439453125,13.0615234375,-17.4560546875,-12.8173828125
22780.585450791,0.453125,0.7674560546875,1.0450439453125,13.0615234375,-17.4560546875,10.55908203125
22780.6019045,0.466064453125,0.7674560546875,1.0450439453125,13.0615234375,-17.4560546875,10.55908203125
22780.601960708,0.466064453125,0.699462890625,1.0450439453125,13.0615234375,-17.4560546875,10.55908203125
22780.627217208,0.466064453125,0.699462890625,0.9681396484375,13.0615234375,-17.4560546875,10.55908203125
22780.627373208,0.466064453125,0.699462890625,0.9681396484375,13.0615234375,-22.64404296875,10.55908203125
22780.628139041,0.466064453125,0.699462890625,0.9681396484375,13.0615234375,-22.64404296875,12.3291015625
22780.628258375,0.5391845703125,0.699462890625,0.9681396484375,13.0615234375,-22.64404296875,12.3291015625
22780.643969,0.5391845703125,0.699462890625,0.9681396484375,13.0615234375,-23.8037109375,12.3291015625
22780.644136333,0.5391845703125,0.699462890625,0.9681396484375,13.0615234375,-23.8037109375,13.3056640625
22780.702717416,0.510009765625,0.699462890625,0.9681396484375,13.0615234375,-23.8037109375,13.3056640625
22780.702873166,0.510009765625,0.401123046875,0.9681396484375,13.0615234375,-23.8037109375,13.3056640625
22780.703446416,0.510009765625,0.401123046875,0.951416015625,13.0615234375,-23.8037109375,13.3056640625
22780.703611125,0.510009765625,0.401123046875,0.951416015625,44.5556640625,-23.8037109375,13.3056640625
22780.719547416,0.678466796875,0.401123046875,0.951416015625,44.5556640625,-23.8037109375,13.3056640625
22780.719628041,0.678466796875,0.6890869140625,0.951416015625,44.5556640625,-23.8037109375,13.3056640625
22780.719699,0.678466796875,0.6890869140625,1.009521484375,44.5556640625,-23.8037109375,13.3056640625
22780.778497666,0.678466796875,0.6890869140625,1.009521484375,44.5556640625,-43.212890625,13.3056640625
22780.778800958,0.678466796875,0.6890869140625,1.009521484375,44.5556640625,-43.212890625,7.99560546875
22780.778912375,0.58251953125,0.6890869140625,1.009521484375,44.5556640625,-43.212890625,7.99560546875
22780.802897916,0.58251953125,0.6890869140625,0.9405517578125,44.5556640625,-43.212890625,7.99560546875
22780.802978166,0.58251953125,0.6890869140625,0.9405517578125,23.92578125,-43.212890625,7.99560546875
22780.803048666,0.58251953125,0.6890869140625,0.9405517578125,23.92578125,-57.0068359375,7.99560546875
22780.837685833,0.461669921875,0.6890869140625,0.9405517578125,23.92578125,-57.0068359375,7.99560546875
22780.840021666,0.461669921875,0.8646240234375,0.9405517578125,23.92578125,-57.0068359375,7.99560546875
22780.8402425,0.461669921875,0.8646240234375,0.9322509765625,23.92578125,-57.0068359375,7.99560546875
22780.840354541,0.461669921875,0.8646240234375,0.9322509765625,22.27783203125,-57.0068359375,7.99560546875
22780.852525666,0.3743896484375,0.8646240234375,0.9322509765625,22.27783203125,-57.0068359375,7.99560546875
22780.852779208,0.3743896484375,0.9345703125,0.9322509765625,22.27783203125,-57.0068359375,7.99560546875
22780.85291275,0.3743896484375,0.9345703125,0.974365234375,22.27783203125,-57.0068359375,7.99560546875
22780.8820535,0.3743896484375,0.9345703125,0.974365234375,22.27783203125,-57.0068359375,83.8623046875
22780.912155041,0.2283935546875,0.9345703125,0.974365234375,22.27783203125,-57.0068359375,83.8623046875
22780.912363,0.2283935546875,0.8907470703125,0.974365234375,22.27783203125,-57.0068359375,83.8623046875
22780.912633833,0.2283935546875,0.8907470703125,0.864013671875,22.27783203125,-57.0068359375,83.8623046875
22780.912853,0.2283935546875,0.8907470703125,0.864013671875,22.27783203125,-105.52978515625,83.8623046875
22780.942291875,0.04296875,0.8907470703125,0.864013671875,22.27783203125,-105.52978515625,83.8623046875
22780.94656425,0.04296875,0.8084716796875,0.864013671875,22.27783203125,-105.52978515625,83.8623046875
22780.94665625,0.04296875,0.8084716796875,0.8597412109375,22.27783203125,-105.52978515625,83.8623046875
22780.961828,0.04296875,0.8084716796875,0.8597412109375,22.27783203125,-116.455078125,83.8623046875
22780.961928291,0.04296875,0.8084716796875,0.8597412109375,22.27783203125,-116.455078125,104.91943359375
22781.002973583,-0.0611572265625,0.8084716796875,0.8597412109375,22.27783203125,-116.455078125,104.91943359375
22781.003175583,-0.0611572265625,0.6728515625,0.8597412109375,22.27783203125,-116.455078125,104.91943359375
22781.003869958,-0.0611572265625,0.6728515625,0.687744140625,22.27783203125,-116.455078125,104.91943359375
22781.00403825,-0.0611572265625,0.6728515625,0.687744140625,76.59912109375,-116.455078125,104.91943359375
22781.017514,-0.210693359375,0.6728515625,0.687744140625,76.59912109375,-116.455078125,104.91943359375
22781.017695583,-0.210693359375,0.4873046875,0.687744140625,76.59912109375,-116.455078125,104.91943359375
22781.078411625,-0.210693359375,0.4873046875,0.5357666015625,76.59912109375,-116.455078125,104.91943359375
22781.078855541,-0.210693359375,0.4873046875,0.5357666015625,76.59912109375,-135.92529296875,104.91943359375
22781.079357458,-0.210693359375,0.4873046875,0.5357666015625,76.59912109375,-135.92529296875,94.7265625
22781.079952958,-0.32763671875,0.4873046875,0.5357666015625,76.59912109375,-135.92529296875,94.7265625
22781.10349775,-0.32763671875,0.4873046875,0.4083251953125,76.59912109375,-135.92529296875,94.7265625
22781.103597208,-0.32763671875,0.4873046875,0.4083251953125,106.4453125,-135.92529296875,94.7265625
22781.103685125,-0.32763671875,0.4873046875,0.4083251953125,106.4453125,-132.2021484375,94.7265625
22781.138004625,-0.2818603515625,0.4873046875,0.4083251953125,106.4453125,-132.2021484375,94.7265625
22781.139478958,-0.2818603515625,0.2618408203125,0.4083251953125,106.4453125,-132.2021484375,94.7265625
22781.198807166,-0.2818603515625,0.2618408203125,0.3544921875,106.4453125,-132.2021484375,94.7265625
22781.199526416,-0.2818603515625,0.2618408203125,0.3544921875,30.1513671875,-132.2021484375,94.7265625
22781.19981675,-0.1607666015625,0.2618408203125,0.3544921875,30.1513671875,-132.2021484375,94.7265625
22781.200029041,-0.1607666015625,0.1934814453125,0.3544921875,30.1513671875,-132.2021484375,94.7265625
22781.227771291,-0.1607666015625,0.1934814453125,0.3544921875,39.55078125,-132.2021484375,94.7265625
22781.228014416,-0.1607666015625,0.1934814453125,0.3544921875,39.55078125,-95.03173828125,94.7265625
22781.228146041,-0.1607666015625,0.1934814453125,0.3544921875,39.55078125,-95.03173828125,17.27294921875
22781.258001583,-0.3360595703125,0.1934814453125,0.3544921875,39.55078125,-95.03173828125,17.27294921875
22781.258334,-0.3360595703125,0.1226806640625,0.3544921875,39.55078125,-95.03173828125,17.27294921875
22781.258492833,-0.3360595703125,0.1226806640625,0.2049560546875,39.55078125,-95.03173828125,17.27294921875
22781.258580541,-0.406494140625,0.1226806640625,0.2049560546875,39.55078125,-95.03173828125,17.27294921875
22781.288941666,-0.406494140625,0.1226806640625,0.2413330078125,39.55078125,-95.03173828125,17.27294921875
22781.289296541,-0.406494140625,0.1226806640625,0.2413330078125,0.1220703125,-95.03173828125,17.27294921875
22781.289437375,-0.406494140625,0.1226806640625,0.2413330078125,0.1220703125,-17.63916015625,17.27294921875
22781.347763583,-0.43212890625,0.1226806640625,0.2413330078125,0.1220703125,-17.63916015625,17.27294921875
22781.348032541,-0.43212890625,0.100341796875,0.2413330078125,0.1220703125,-17.63916015625,17.27294921875
22781.348164666,-0.43212890625,0.100341796875,0.2518310546875,0.1220703125,-17.63916015625,17.27294921875
22781.348870375,-0.43212890625,0.100341796875,0.2518310546875,1.953125,-17.63916015625,17.27294921875
22781.369447083,-0.464111328125,0.100341796875,0.2518310546875,1.953125,-17.63916015625,17.27294921875
22781.369544583,-0.464111328125,0.140380859375,0.2518310546875,1.953125,-17.63916015625,17.27294921875
22781.36961425,-0.464111328125,0.140380859375,0.334716796875,1.953125,-17.63916015625,17.27294921875
22781.378026166,-0.464111328125,0.140380859375,0.334716796875,1.953125,37.04833984375,17.27294921875
22781.378197958,-0.464111328125,0.140380859375,0.334716796875,1.953125,37.04833984375,-2.8076171875
22781.394076583,-0.4443359375,0.140380859375,0.334716796875,1.953125,37.04833984375,-2.8076171875
22781.394285375,-0.4443359375,0.1329345703125,0.334716796875,1.953125,37.04833984375,-2.8076171875
22781.3943945,-0.4443359375,0.1329345703125,0.5572509765625,1.953125,37.04833984375,-2.8076171875
22781.408991625,-0.4443359375,0.1329345703125,0.5572509765625,1.953125,57.7392578125,-2.8076171875
22781.409138125,-0.4443359375,0.1329345703125,0.5572509765625,1.953125,57.7392578125,-9.70458984375
22781.422308375,-0.5147705078125,0.1329345703125,0.5572509765625,1.953125,57.7392578125,-9.70458984375
22781.43773925,-0.5147705078125,0.2117919921875,0.5572509765625,1.953125,57.7392578125,-9.70458984375
22781.437986708,-0.5147705078125,0.2117919921875,0.5906982421875,1.953125,57.7392578125,-9.70458984375
22781.438074708,-0.5147705078125,0.2117919921875,0.5906982421875,1.953125,59.6923828125,-9.70458984375
22781.43813625,-0.5147705078125,0.2117919921875,0.5906982421875,1.953125,59.6923828125,-11.16943359375
22781.467456583,-0.472412109375,0.2117919921875,0.5906982421875,1.953125,59.6923828125,-11.16943359375
22781.467646666,-0.472412109375,0.1751708984375,0.5906982421875,1.953125,59.6923828125,-11.16943359375
22781.468470625,-0.472412109375,0.1751708984375,0.6561279296875,1.953125,59.6923828125,-11.16943359375
22781.468646666,-0.472412109375,0.1751708984375,0.6561279296875,24.169921875,59.6923828125,-11.16943359375
22781.497141125,-0.4208984375,0.1751708984375,0.6561279296875,24.169921875,59.6923828125,-11.16943359375
22781.503081625,-0.4208984375,0.146728515625,0.6561279296875,24.169921875,59.6923828125,-11.16943359375
22781.503159791,-0.4208984375,0.146728515625,0.792724609375,24.169921875,59.6923828125,-11.16943359375
22781.512490125,-0.4208984375,0.146728515625,0.792724609375,24.169921875,63.78173828125,-11.16943359375
22781.51265525,-0.4208984375,0.146728515625,0.792724609375,24.169921875,63.78173828125,-19.287109375
22781.542354875,-0.427001953125,0.146728515625,0.792724609375,24.169921875,63.78173828125,-19.287109375
22781.542522208,-0.427001953125,0.2322998046875,0.792724609375,24.169921875,63.78173828125,-19.287109375
22781.543154541,-0.427001953125,0.2322998046875,0.85986328125,24.169921875,63.78173828125,-19.287109375
22781.543291083,-0.427001953125,0.2322998046875,0.85986328125,6.53076171875,63.78173828125,-19.287109375
22781.569530708,-0.4033203125,0.2322998046875,0.85986328125,6.53076171875,63.78173828125,-19.287109375
22781.569600208,-0.4033203125,0.2613525390625,0.85986328125,6.53076171875,63.78173828125,-19.287109375
22781.569661458,-0.4033203125,0.2613525390625,0.873046875,6.53076171875,63.78173828125,-19.287109375
22781.572211166,-0.4033203125,0.2613525390625,0.873046875,6.53076171875,51.45263671875,-19.287109375
22781.587235375,-0.4033203125,0.2613525390625,0.873046875,6.53076171875,51.45263671875,-31.494140625
22781.602558,-0.407958984375,0.2613525390625,0.873046875,6.53076171875,51.45263671875,-31.494140625
22781.602635166,-0.407958984375,0.2567138671875,0.873046875,6.53076171875,51.45263671875,-31.494140625
22781.664387916,-0.407958984375,0.2567138671875,0.943115234375,6.53076171875,51.45263671875,-31.494140625
22781.66448925,-0.407958984375,0.2567138671875,0.943115234375,6.53076171875,50.6591796875,-31.494140625
22781.664685083,-0.407958984375,0.2567138671875,0.943115234375,6.53076171875,50.6591796875,-31.79931640625
22781.686995125,-0.393310546875,0.2567138671875,0.943115234375,6.53076171875,50.6591796875,-31.79931640625
22781.687092125,-0.393310546875,0.2567138671875,0.8472900390625,6.53076171875,50.6591796875,-31.79931640625
22781.687188291,-0.393310546875,0.2567138671875,0.8472900390625,37.353515625,50.6591796875,-31.79931640625
22781.6931965,-0.393310546875,0.2567138671875,0.8472900390625,37.353515625,50.6591796875,-40.58837890625
22781.709218375,-0.228271484375,0.2567138671875,0.8472900390625,37.353515625,50.6591796875,-40.58837890625
22781.709486708,-0.228271484375,0.279296875,0.8472900390625,37.353515625,50.6591796875,-40.58837890625
22781.709614416,-0.228271484375,0.279296875,0.8192138671875,37.353515625,50.6591796875,-40.58837890625
22781.723088291,-0.228271484375,0.279296875,0.8192138671875,37.353515625,59.4482421875,-40.58837890625
22781.723305333,-0.228271484375,0.279296875,0.8192138671875,37.353515625,59.4482421875,-54.931640625
22781.7524135,-0.283935546875,0.279296875,0.8192138671875,37.353515625,59.4482421875,-54.931640625
22781.752597416,-0.283935546875,0.283447265625,0.8192138671875,37.353515625,59.4482421875,-54.931640625
22781.768733875,-0.283935546875,0.283447265625,0.855712890625,37.353515625,59.4482421875,-54.931640625
22781.769091541,-0.283935546875,0.283447265625,0.855712890625,-1.15966796875,59.4482421875,-54.931640625
22781.769279833,-0.038818359375,0.283447265625,0.855712890625,-1.15966796875,59.4482421875,-54.931640625
22781.769369916,-0.038818359375,0.4033203125,0.855712890625,-1.15966796875,59.4482421875,-54.931640625
22781.786485291,-0.038818359375,0.4033203125,0.855712890625,-26.0009765625,59.4482421875,-54.931640625
22781.7866595,-0.038818359375,0.4033203125,0.855712890625,-26.0009765625,70.73974609375,-54.931640625
22781.812869583,-0.038818359375,0.4033203125,0.855712890625,-26.0009765625,70.73974609375,-54.3212890625
22781.812990333,-0.04345703125,0.4033203125,0.855712890625,-26.0009765625,70.73974609375,-54.3212890625
22781.819624625,-0.04345703125,0.47509765625,0.855712890625,-26.0009765625,70.73974609375,-54.3212890625
22781.819702625,-0.04345703125,0.47509765625,0.89453125,-26.0009765625,70.73974609375,-54.3212890625
22781.827582916,-0.04345703125,0.47509765625,0.89453125,-26.0009765625,73.54736328125,-54.3212890625
22781.82772175,-0.04345703125,0.47509765625,0.89453125,-26.0009765625,73.54736328125,-48.27880859375
22781.857519,0.0906982421875,0.47509765625,0.89453125,-26.0009765625,73.54736328125,-48.27880859375
22781.862029541,0.0906982421875,0.5091552734375,0.89453125,-26.0009765625,73.54736328125,-48.27880859375
22781.862167791,0.0906982421875,0.5091552734375,0.9864501953125,-26.0009765625,73.54736328125,-48.27880859375
22781.862255375,0.0906982421875,0.5091552734375,0.9864501953125,-26.30615234375,73.54736328125,-48.27880859375
22781.886416,0.1085205078125,0.5091552734375,0.9864501953125,-26.30615234375,73.54736328125,-48.27880859375
22781.88649575,0.1085205078125,0.445068359375,0.9864501953125,-26.30615234375,73.54736328125,-48.27880859375
22781.886567,0.1085205078125,0.445068359375,0.8885498046875,-26.30615234375,73.54736328125,-48.27880859375
22781.888917375,0.1085205078125,0.445068359375,0.8885498046875,-26.30615234375,83.740234375,-48.27880859375
22781.889071583,0.1085205078125,0.445068359375,0.8885498046875,-26.30615234375,83.740234375,-20.56884765625
22781.947685291,0.2041015625,0.445068359375,0.8885498046875,-26.30615234375,83.740234375,-20.56884765625
22781.953708708,0.2041015625,0.4708251953125,0.8885498046875,-26.30615234375,83.740234375,-20.56884765625
22781.953800958,0.2041015625,0.4708251953125,0.9461669921875,-26.30615234375,83.740234375,-20.56884765625
22781.953886291,0.2041015625,0.4708251953125,0.9461669921875,-31.18896484375,83.740234375,-20.56884765625
22781.993535166,0.2376708984375,0.4708251953125,0.9461669921875,-31.18896484375,83.740234375,-20.56884765625
22781.993747041,0.2376708984375,0.47998046875,0.9461669921875,-31.18896484375,83.740234375,-20.56884765625
22781.994084791,0.2376708984375,0.47998046875,0.949951171875,-31.18896484375,83.740234375,-20.56884765625
22781.994208625,0.2376708984375,0.47998046875,0.949951171875,-31.18896484375,77.392578125,-20.56884765625
22782.020317708,0.2637939453125,0.47998046875,0.949951171875,-31.18896484375,77.392578125,-20.56884765625
22782.020420791,0.2637939453125,0.501953125,0.949951171875,-31.18896484375,77.392578125,-20.56884765625
22782.020513708,0.2637939453125,0.501953125,0.985595703125,-31.18896484375,77.392578125,-20.56884765625
22782.0228905,0.2637939453125,0.501953125,0.985595703125,-31.18896484375,81.23779296875,-20.56884765625
22782.02309875,0.2637939453125,0.501953125,0.985595703125,-31.18896484375,81.23779296875,-7.50732421875
22782.037541625,0.3206787109375,0.501953125,0.985595703125,-31.18896484375,81.23779296875,-7.50732421875
22782.037702541,0.3206787109375,0.4195556640625,0.985595703125,-31.18896484375,81.23779296875,-7.50732421875
22782.053501708,0.3206787109375,0.4195556640625,0.9654541015625,-31.18896484375,81.23779296875,-7.50732421875
22782.053583791,0.3206787109375,0.4195556640625,0.9654541015625,-31.18896484375,75.01220703125,-7.50732421875
22782.053655166,0.3206787109375,0.4195556640625,0.9654541015625,-31.18896484375,75.01220703125,-8.72802734375
22782.069167458,0.3858642578125,0.4195556640625,0.9654541015625,-31.18896484375,75.01220703125,-8.72802734375
22782.069235333,0.3858642578125,0.4422607421875,0.9654541015625,-31.18896484375,75.01220703125,-8.72802734375
22782.069295166,0.3858642578125,0.4422607421875,0.914306640625,-31.18896484375,75.01220703125,-8.72802734375
22782.085739041,0.3858642578125,0.4422607421875,0.914306640625,-31.18896484375,70.00732421875,-8.72802734375
22782.085838541,0.3858642578125,0.4422607421875,0.914306640625,-31.18896484375,70.00732421875,-10.07080078125
22782.112422333,0.3887939453125,0.4422607421875,0.914306640625,-31.18896484375,70.00732421875,-10.07080078125
22782.112604166,0.3887939453125,0.47509765625,0.914306640625,-31.18896484375,70.00732421875,-10.07080078125
22782.113191041,0.3887939453125,0.47509765625,0.98291015625,-31.18896484375,70.00732421875,-10.07080078125
22782.11336975,0.3887939453125,0.47509765625,0.98291015625,-31.18896484375,61.1572265625,-10.07080078125
22782.127583,0.374267578125,0.47509765625,0.98291015625,-31.18896484375,61.1572265625,-10.07080078125
22782.127816083,0.374267578125,0.42822265625,0.98291015625,-31.18896484375,61.1572265625,-10.07080078125
22782.127913791,0.374267578125,0.42822265625,0.8956298828125,-31.18896484375,61.1572265625,-10.07080078125
22782.142641916,0.374267578125,0.42822265625,0.8956298828125,-31.18896484375,53.22265625,-10.07080078125
22782.142836375,0.374267578125,0.42822265625,0.8956298828125,-31.18896484375,53.22265625,-14.6484375
22782.188249708,0.45458984375,0.42822265625,0.8956298828125,-31.18896484375,53.22265625,-14.6484375
22782.188548291,0.45458984375,0.5589599609375,0.8956298828125,-31.18896484375,53.22265625,-14.6484375
22782.188663958,0.45458984375,0.5589599609375,0.9566650390625,-31.18896484375,53.22265625,-14.6484375
22782.189674375,0.45458984375,0.5589599609375,0.9566650390625,-31.18896484375,45.22705078125,-14.6484375
22782.248900125,0.3917236328125,0.5589599609375,0.9566650390625,-31.18896484375,45.22705078125,-14.6484375
22782.249640583,0.3917236328125,0.43408203125,0.9566650390625,-31.18896484375,45.22705078125,-14.6484375
22782.249814833,0.3917236328125,0.43408203125,0.8583984375,-31.18896484375,45.22705078125,-14.6484375
22782.250035041,0.3917236328125,0.43408203125,0.8583984375,-25.93994140625,45.22705078125,-14.6484375
22782.293152875,0.5108642578125,0.43408203125,0.8583984375,-25.93994140625,45.22705078125,-14.6484375
22782.293366333,0.5108642578125,0.63623046875,0.8583984375,-25.93994140625,45.22705078125,-14.6484375
22782.2934825,0.5108642578125,0.63623046875,0.96630859375,-25.93994140625,45.22705078125,-14.6484375
22782.309202,0.5108642578125,0.63623046875,0.96630859375,-25.93994140625,21.6064453125,-14.6484375
22782.309372333,0.5108642578125,0.63623046875,0.96630859375,-25.93994140625,21.6064453125,-14.7705078125
22782.338111208,0.2880859375,0.63623046875,0.96630859375,-25.93994140625,21.6064453125,-14.7705078125
22782.338254958,0.2880859375,0.5447998046875,0.96630859375,-25.93994140625,21.6064453125,-14.7705078125
22782.338872541,0.2880859375,0.5447998046875,0.852783203125,-25.93994140625,21.6064453125,-14.7705078125
22782.338990166,0.2880859375,0.5447998046875,0.852783203125,4.0283203125,21.6064453125,-14.7705078125
22782.367868458,0.4307861328125,0.5447998046875,0.852783203125,4.0283203125,21.6064453125,-14.7705078125
22782.367973666,0.4307861328125,0.52880859375,0.852783203125,4.0283203125,21.6064453125,-14.7705078125
22782.368030541,0.4307861328125,0.52880859375,0.85595703125,4.0283203125,21.6064453125,-14.7705078125
22782.382416291,0.4307861328125,0.52880859375,0.85595703125,4.0283203125,9.46044921875,-14.7705078125
22782.382496333,0.402587890625,0.52880859375,0.85595703125,4.0283203125,9.46044921875,-14.7705078125
22782.382524291,0.402587890625,0.3868408203125,0.85595703125,4.0283203125,9.46044921875,-14.7705078125
NEW_REP,,,,,,
22782.41230425,0.402587890625,0.3868408203125,0.85595703125,7.01904296875,9.46044921875,-14.7705078125
22782.412461166,0.402587890625,0.3868408203125,0.85595703125,7.01904296875,0.1220703125,-14.7705078125
22782.418718041,0.402587890625,0.3868408203125,0.85595703125,7.01904296875,0.1220703125,10.7421875
22782.435353625,0.3958740234375,0.3868408203125,0.85595703125,7.01904296875,0.1220703125,10.7421875
22782.435417291,0.3958740234375,0.4888916015625,0.85595703125,7.01904296875,0.1220703125,10.7421875
22782.4354755,0.3958740234375,0.4888916015625,0.876708984375,7.01904296875,0.1220703125,10.7421875
22782.457761666,0.3997802734375,0.4888916015625,0.876708984375,7.01904296875,0.1220703125,10.7421875
22782.457931875,0.3997802734375,0.5947265625,0.876708984375,7.01904296875,0.1220703125,10.7421875
22782.458023708,0.3997802734375,0.5947265625,1.017333984375,7.01904296875,0.1220703125,10.7421875
22782.458434333,0.3997802734375,0.5947265625,1.017333984375,-5.7373046875,0.1220703125,10.7421875
22782.472425083,0.404052734375,0.5947265625,1.017333984375,-5.7373046875,0.1220703125,10.7421875
22782.472549083,0.404052734375,0.6072998046875,1.017333984375,-5.7373046875,0.1220703125,10.7421875
22782.473746458,0.404052734375,0.6072998046875,0.9837646484375,-5.7373046875,0.1220703125,10.7421875
22782.487353083,0.404052734375,0.6072998046875,0.9837646484375,-5.7373046875,-21.91162109375,10.7421875
22782.487475083,0.404052734375,0.6072998046875,0.9837646484375,-5.7373046875,-21.91162109375,9.6435546875
22782.502235333,0.40283203125,0.6072998046875,0.9837646484375,-5.7373046875,-21.91162109375,9.6435546875
22782.502416791,0.40283203125,0.5416259765625,0.9837646484375,-5.7373046875,-21.91162109375,9.6435546875
22782.502510416,0.40283203125,0.5416259765625,0.99951171875,-5.7373046875,-21.91162109375,9.6435546875
22782.547482625,0.40283203125,0.5416259765625,0.99951171875,-5.7373046875,-27.40478515625,9.6435546875
22782.547680583,0.40283203125,0.5416259765625,0.99951171875,-5.7373046875,-27.40478515625,12.51220703125
22782.547785625,0.3800048828125,0.5416259765625,0.99951171875,-5.7373046875,-27.40478515625,12.51220703125
22782.569134541,0.3800048828125,0.5416259765625,1.052490234375,-5.7373046875,-27.40478515625,12.51220703125
22782.569204,0.3800048828125,0.5416259765625,1.052490234375,26.67236328125,-27.40478515625,12.51220703125
22782.569264083,0.3800048828125,0.5416259765625,1.052490234375,26.67236328125,-33.26416015625,12.51220703125
22782.592436333,0.302978515625,0.5416259765625,1.052490234375,26.67236328125,-33.26416015625,12.51220703125
22782.592580416,0.302978515625,0.548828125,1.052490234375,26.67236328125,-33.26416015625,12.51220703125
22782.593195333,0.302978515625,0.548828125,1.2210693359375,26.67236328125,-33.26416015625,12.51220703125
22782.593318125,0.302978515625,0.548828125,1.2210693359375,35.2783203125,-33.26416015625,12.51220703125
22782.621395666,0.3165283203125,0.548828125,1.2210693359375,35.2783203125,-33.26416015625,12.51220703125
22782.623130333,0.3165283203125,0.681640625,1.2210693359375,35.2783203125,-33.26416015625,12.51220703125
22782.623297791,0.3165283203125,0.681640625,1.19287109375,35.2783203125,-33.26416015625,12.51220703125
22782.637406458,0.3165283203125,0.681640625,1.19287109375,27.77099609375,-33.26416015625,12.51220703125
22782.652718625,0.336181640625,0.681640625,1.19287109375,27.77099609375,-33.26416015625,12.51220703125
22782.652917208,0.336181640625,0.719482421875,1.19287109375,27.77099609375,-33.26416015625,12.51220703125
22782.652998208,0.336181640625,0.719482421875,1.0238037109375,27.77099609375,-33.26416015625,12.51220703125
22782.682066208,0.336181640625,0.719482421875,1.0238037109375,27.77099609375,-76.84326171875,12.51220703125
22782.68325925,0.336181640625,0.719482421875,1.0238037109375,27.77099609375,-76.84326171875,33.87451171875
22782.727620291,0.3138427734375,0.719482421875,1.0238037109375,27.77099609375,-76.84326171875,33.87451171875
22782.727718625,0.3138427734375,0.7427978515625,1.0238037109375,27.77099609375,-76.84326171875,33.87451171875
22782.7281945,0.3138427734375,0.7427978515625,1.048583984375,27.77099609375,-76.84326171875,33.87451171875
22782.728328708,0.216796875,0.7427978515625,1.048583984375,27.77099609375,-76.84326171875,33.87451171875
22782.742524583,0.216796875,0.7427978515625,1.0640869140625,27.77099609375,-76.84326171875,33.87451171875
22782.742710583,0.216796875,0.7427978515625,1.0640869140625,23.98681640625,-76.84326171875,33.87451171875
22782.742811666,0.216796875,0.7427978515625,1.0640869140625,23.98681640625,-95.0927734375,33.87451171875
22782.769285291,0.1114501953125,0.7427978515625,1.0640869140625,23.98681640625,-95.0927734375,33.87451171875
22782.77239675,0.1114501953125,0.63037109375,1.0640869140625,23.98681640625,-95.0927734375,33.87451171875
22782.772566,0.1114501953125,0.63037109375,0.9736328125,23.98681640625,-95.0927734375,33.87451171875
22782.772659125,0.1114501953125,0.63037109375,0.9736328125,37.53662109375,-95.0927734375,33.87451171875
22782.787447625,0.0650634765625,0.63037109375,0.9736328125,37.53662109375,-95.0927734375,33.87451171875
22782.787574291,0.0650634765625,0.6463623046875,0.9736328125,37.53662109375,-95.0927734375,33.87451171875
22782.802344333,0.0650634765625,0.6463623046875,0.976806640625,37.53662109375,-95.0927734375,33.87451171875
22782.862310833,0.0650634765625,0.6463623046875,0.976806640625,37.53662109375,-110.3515625,33.87451171875
22782.885679166,0.0650634765625,0.6463623046875,0.976806640625,37.53662109375,-110.3515625,60.24169921875
22782.892055208,-0.0064697265625,0.6463623046875,0.976806640625,37.53662109375,-110.3515625,60.24169921875
22782.893819791,-0.0064697265625,0.5341796875,0.976806640625,37.53662109375,-110.3515625,60.24169921875
22782.893994375,-0.0064697265625,0.5341796875,0.976806640625,37.53662109375,-112.1826171875,60.24169921875
22782.894056083,-0.0064697265625,0.5341796875,0.976806640625,37.53662109375,-112.1826171875,58.837890625
22782.922462416,-0.11181640625,0.5341796875,0.976806640625,37.53662109375,-112.1826171875,58.837890625
22782.922624041,-0.11181640625,0.4989013671875,0.976806640625,37.53662109375,-112.1826171875,58.837890625
22782.923498166,-0.11181640625,0.4989013671875,0.691650390625,37.53662109375,-112.1826171875,58.837890625
22782.923655416,-0.11181640625,0.4989013671875,0.691650390625,37.53662109375,-112.1826171875,46.44775390625
22782.937380791,-0.1492919921875,0.4989013671875,0.691650390625,37.53662109375,-112.1826171875,46.44775390625
22782.937588416,-0.1492919921875,0.363037109375,0.691650390625,37.53662109375,-112.1826171875,46.44775390625
22782.941158125,-0.1492919921875,0.363037109375,0.5631103515625,37.53662109375,-112.1826171875,46.44775390625
22782.956004625,-0.1492919921875,0.363037109375,0.5631103515625,37.53662109375,-111.572265625,46.44775390625
22782.95608125,-0.1492919921875,0.363037109375,0.5631103515625,37.53662109375,-111.572265625,43.15185546875
22782.985994416,-0.2113037109375,0.363037109375,0.5631103515625,37.53662109375,-111.572265625,43.15185546875
22782.986083833,-0.2113037109375,0.2518310546875,0.5631103515625,37.53662109375,-111.572265625,43.15185546875
22782.986144625,-0.2113037109375,0.2518310546875,0.5015869140625,37.53662109375,-111.572265625,43.15185546875
22782.986204875,-0.2113037109375,0.2518310546875,0.5015869140625,37.53662109375,-108.7646484375,43.15185546875
22782.986264458,-0.2113037109375,0.2518310546875,0.5015869140625,37.53662109375,-108.7646484375,41.259765625
22783.00275375,-0.219482421875,0.2518310546875,0.5015869140625,37.53662109375,-108.7646484375,41.259765625
22783.00282225,-0.219482421875,0.145263671875,0.5015869140625,37.53662109375,-108.7646484375,41.259765625
22783.002883041,-0.219482421875,0.145263671875,0.3336181640625,37.53662109375,-108.7646484375,41.259765625
22783.027601166,-0.219482421875,0.145263671875,0.3336181640625,37.53662109375,-104.1259765625,41.259765625
22783.027759208,-0.219482421875,0.145263671875,0.3336181640625,37.53662109375,-104.1259765625,33.02001953125
22783.028266083,-0.1923828125,0.145263671875,0.3336181640625,37.53662109375,-104.1259765625,33.02001953125
22783.028457291,-0.1923828125,0.0946044921875,0.3336181640625,37.53662109375,-104.1259765625,33.02001953125
22783.042666916,-0.1923828125,0.0946044921875,0.3336181640625,37.53662109375,-98.69384765625,33.02001953125
22783.042823583,-0.1923828125,0.0946044921875,0.3336181640625,37.53662109375,-98.69384765625,25.0244140625
22783.0724665,-0.3587646484375,0.0946044921875,0.3336181640625,37.53662109375,-98.69384765625,25.0244140625
22783.072649333,-0.3587646484375,0.06298828125,0.3336181640625,37.53662109375,-98.69384765625,25.0244140625
22783.073360333,-0.3587646484375,0.06298828125,0.3580322265625,37.53662109375,-98.69384765625,25.0244140625
22783.073568166,-0.3587646484375,0.06298828125,0.3580322265625,-4.08935546875,-98.69384765625,25.0244140625
22783.08752525,-0.461181640625,0.06298828125,0.3580322265625,-4.08935546875,-98.69384765625,25.0244140625
22783.087699916,-0.461181640625,0.057861328125,0.3580322265625,-4.08935546875,-98.69384765625,25.0244140625
22783.087791291,-0.461181640625,0.057861328125,0.2744140625,-4.08935546875,-98.69384765625,25.0244140625
22783.102906875,-0.461181640625,0.057861328125,0.2744140625,-4.08935546875,-67.138671875,25.0244140625
22783.102981666,-0.461181640625,0.057861328125,0.2744140625,-4.08935546875,-67.138671875,7.50732421875
22783.147613833,-0.4727783203125,0.057861328125,0.2744140625,-4.08935546875,-67.138671875,7.50732421875
22783.1478865,-0.4727783203125,0.128662109375,0.2744140625,-4.08935546875,-67.138671875,7.50732421875
22783.148000458,-0.4727783203125,0.128662109375,0.22021484375,-4.08935546875,-67.138671875,7.50732421875
22783.162424458,-0.4727783203125,0.128662109375,0.22021484375,-4.08935546875,-48.15673828125,7.50732421875
22783.162630375,-0.4727783203125,0.128662109375,0.22021484375,-4.08935546875,-48.15673828125,4.2724609375
22783.192544083,-0.4732666015625,0.128662109375,0.22021484375,-4.08935546875,-48.15673828125,4.2724609375
22783.192714416,-0.4732666015625,0.247802734375,0.22021484375,-4.08935546875,-48.15673828125,4.2724609375
22783.193128875,-0.4732666015625,0.247802734375,0.3380126953125,-4.08935546875,-48.15673828125,4.2724609375
22783.193267791,-0.4732666015625,0.247802734375,0.3380126953125,-10.498046875,-48.15673828125,4.2724609375
22783.207726875,-0.528564453125,0.247802734375,0.3380126953125,-10.498046875,-48.15673828125,4.2724609375
22783.207935833,-0.528564453125,0.1849365234375,0.3380126953125,-10.498046875,-48.15673828125,4.2724609375
22783.208044625,-0.528564453125,0.1849365234375,0.331298828125,-10.498046875,-48.15673828125,4.2724609375
22783.222688375,-0.528564453125,0.1849365234375,0.331298828125,-10.498046875,15.0146484375,4.2724609375
22783.222831583,-0.528564453125,0.1849365234375,0.331298828125,-10.498046875,15.0146484375,0.06103515625
22783.23719425,-0.53564453125,0.1849365234375,0.331298828125,-10.498046875,15.0146484375,0.06103515625
22783.2527675,-0.53564453125,0.1610107421875,0.331298828125,-10.498046875,15.0146484375,0.06103515625
22783.252845291,-0.53564453125,0.1610107421875,0.3961181640625,-10.498046875,15.0146484375,0.06103515625
22783.252916708,-0.53564453125,0.1610107421875,0.3961181640625,-10.498046875,31.67724609375,0.06103515625
22783.253332583,-0.53564453125,0.1610107421875,0.3961181640625,-10.498046875,31.67724609375,-5.0048828125
22783.269329291,-0.5338134765625,0.1610107421875,0.3961181640625,-10.498046875,31.67724609375,-5.0048828125
22783.269397666,-0.5338134765625,0.1705322265625,0.3961181640625,-10.498046875,31.67724609375,-5.0048828125
22783.269459166,-0.5338134765625,0.1705322265625,0.4881591796875,-10.498046875,31.67724609375,-5.0048828125
22783.286026416,-0.5338134765625,0.1705322265625,0.4881591796875,-10.498046875,36.07177734375,-5.0048828125
22783.286103958,-0.5338134765625,0.1705322265625,0.4881591796875,-10.498046875,36.07177734375,-10.07080078125
22783.302452708,-0.580078125,0.1705322265625,0.4881591796875,-10.498046875,36.07177734375,-10.07080078125
22783.302519,-0.580078125,0.2138671875,0.4881591796875,-10.498046875,36.07177734375,-10.07080078125
22783.302579958,-0.580078125,0.2138671875,0.5667724609375,-10.498046875,36.07177734375,-10.07080078125
22783.327496625,-0.580078125,0.2138671875,0.5667724609375,-10.498046875,42.236328125,-10.07080078125
22783.327677875,-0.580078125,0.2138671875,0.5667724609375,-10.498046875,42.236328125,-16.54052734375
22783.32826725,-0.5677490234375,0.2138671875,0.5667724609375,-10.498046875,42.236328125,-16.54052734375
22783.328401416,-0.5677490234375,0.2318115234375,0.5667724609375,-10.498046875,42.236328125,-16.54052734375
22783.342588208,-0.5677490234375,0.2318115234375,0.5667724609375,-10.498046875,45.0439453125,-16.54052734375
22783.342738041,-0.5677490234375,0.2318115234375,0.5667724609375,-10.498046875,45.0439453125,-20.56884765625
22783.372471333,-0.5343017578125,0.2318115234375,0.5667724609375,-10.498046875,45.0439453125,-20.56884765625
22783.372624375,-0.5343017578125,0.186279296875,0.5667724609375,-10.498046875,45.0439453125,-20.56884765625
22783.373415333,-0.5343017578125,0.186279296875,0.681396484375,-10.498046875,45.0439453125,-20.56884765625
22783.377095916,-0.5343017578125,0.186279296875,0.681396484375,22.64404296875,45.0439453125,-20.56884765625
22783.38738925,-0.565185546875,0.186279296875,0.681396484375,22.64404296875,45.0439453125,-20.56884765625
22783.402357333,-0.565185546875,0.215087890625,0.681396484375,22.64404296875,45.0439453125,-20.56884765625
22783.402487708,-0.565185546875,0.215087890625,0.79296875,22.64404296875,45.0439453125,-20.56884765625
22783.402596083,-0.565185546875,0.215087890625,0.79296875,22.64404296875,46.81396484375,-20.56884765625
22783.402690708,-0.565185546875,0.215087890625,0.79296875,22.64404296875,46.81396484375,-29.9072265625
22783.462500916,-0.5704345703125,0.215087890625,0.79296875,22.64404296875,46.81396484375,-29.9072265625
22783.522995541,-0.5704345703125,0.249267578125,0.79296875,22.64404296875,46.81396484375,-29.9072265625
22783.528622958,-0.5704345703125,0.249267578125,0.829833984375,22.64404296875,46.81396484375,-29.9072265625
22783.528740208,-0.5704345703125,0.249267578125,0.829833984375,22.64404296875,50.72021484375,-29.9072265625
22783.528850125,-0.387939453125,0.249267578125,0.829833984375,22.64404296875,50.72021484375,-29.9072265625
22783.537725791,-0.387939453125,0.249267578125,0.779541015625,22.64404296875,50.72021484375,-29.9072265625
22783.538207958,-0.387939453125,0.249267578125,0.779541015625,10.986328125,50.72021484375,-29.9072265625
22783.538582708,-0.387939453125,0.249267578125,0.779541015625,10.986328125,56.2744140625,-29.9072265625
22783.567396458,-0.2998046875,0.249267578125,0.779541015625,10.986328125,56.2744140625,-29.9072265625
22783.567589458,-0.2998046875,0.2489013671875,0.779541015625,10.986328125,56.2744140625,-29.9072265625
22783.568263583,-0.2998046875,0.2489013671875,0.7406005859375,10.986328125,56.2744140625,-29.9072265625
22783.582441666,-0.2998046875,0.2489013671875,0.7406005859375,10.986328125,70.12939453125,-29.9072265625
22783.582618166,-0.2998046875,0.2489013671875,0.7406005859375,10.986328125,70.12939453125,-37.90283203125
22783.612876666,-0.1473388671875,0.2489013671875,0.7406005859375,10.986328125,70.12939453125,-37.90283203125
22783.613216791,-0.1473388671875,0.240478515625,0.7406005859375,10.986328125,70.12939453125,-37.90283203125
22783.613488375,-0.1473388671875,0.240478515625,0.7685546875,10.986328125,70.12939453125,-37.90283203125
22783.628115166,-0.1473388671875,0.240478515625,0.7685546875,3.35693359375,70.12939453125,-37.90283203125
22783.628457833,-0.1578369140625,0.240478515625,0.7685546875,3.35693359375,70.12939453125,-37.90283203125
22783.628595291,-0.1578369140625,0.41015625,0.7685546875,3.35693359375,70.12939453125,-37.90283203125
22783.642544041,-0.1578369140625,0.41015625,0.8118896484375,3.35693359375,70.12939453125,-37.90283203125
22783.657498625,-0.1578369140625,0.41015625,0.8118896484375,3.35693359375,83.31298828125,-37.90283203125
22783.657689875,-0.1578369140625,0.41015625,0.8118896484375,3.35693359375,83.31298828125,-40.71044921875
22783.672783541,-0.03369140625,0.41015625,0.8118896484375,3.35693359375,83.31298828125,-40.71044921875
22783.673039458,-0.03369140625,0.3974609375,0.8118896484375,3.35693359375,83.31298828125,-40.71044921875
22783.67317775,-0.03369140625,0.3974609375,0.8118896484375,3.35693359375,92.6513671875,-40.71044921875
22783.673535416,-0.03369140625,0.3974609375,0.8118896484375,3.35693359375,92.6513671875,-28.99169921875
22783.702897,0.0263671875,0.3974609375,0.8118896484375,3.35693359375,92.6513671875,-28.99169921875
22783.703359083,0.0263671875,0.4351806640625,0.8118896484375,3.35693359375,92.6513671875,-28.99169921875
22783.703809041,0.0263671875,0.4351806640625,0.8807373046875,3.35693359375,92.6513671875,-28.99169921875
22783.703927083,0.0263671875,0.4351806640625,0.8807373046875,-14.6484375,92.6513671875,-28.99169921875
22783.732441541,0.1080322265625,0.4351806640625,0.8807373046875,-14.6484375,92.6513671875,-28.99169921875
22783.733911333,0.1080322265625,0.41162109375,0.8807373046875,-14.6484375,92.6513671875,-28.99169921875
22783.734157916,0.1080322265625,0.41162109375,0.840576171875,-14.6484375,92.6513671875,-28.99169921875
22783.734286666,0.1080322265625,0.41162109375,0.840576171875,-7.14111328125,92.6513671875,-28.99169921875
22783.753795291,0.2052001953125,0.41162109375,0.840576171875,-7.14111328125,92.6513671875,-28.99169921875
22783.753893041,0.2052001953125,0.49853515625,0.840576171875,-7.14111328125,92.6513671875,-28.99169921875
22783.75397675,0.2052001953125,0.49853515625,0.8994140625,-7.14111328125,92.6513671875,-28.99169921875
22783.762670416,0.2052001953125,0.49853515625,0.8994140625,-7.14111328125,88.2568359375,-28.99169921875
22783.762871125,0.2052001953125,0.49853515625,0.8994140625,-7.14111328125,88.2568359375,-11.90185546875
22783.825210625,0.2213134765625,0.49853515625,0.8994140625,-7.14111328125,88.2568359375,-11.90185546875
22783.825647166,0.2213134765625,0.4700927734375,0.8994140625,-7.14111328125,88.2568359375,-11.90185546875
22783.825826625,0.2213134765625,0.4700927734375,0.8199462890625,-7.14111328125,88.2568359375,-11.90185546875
22783.83854925,0.2213134765625,0.4700927734375,0.8199462890625,-7.14111328125,87.0361328125,-11.90185546875
22783.838911541,0.24853515625,0.4700927734375,0.8199462890625,-7.14111328125,87.0361328125,-11.90185546875
22783.839028125,0.24853515625,0.5924072265625,0.8199462890625,-7.14111328125,87.0361328125,-11.90185546875
22783.839112458,0.24853515625,0.5924072265625,0.9932861328125,-7.14111328125,87.0361328125,-11.90185546875
22783.855000416,0.24853515625,0.5924072265625,0.9932861328125,-7.14111328125,85.693359375,-11.90185546875
22783.855195583,0.24853515625,0.5924072265625,0.9932861328125,-7.14111328125,85.693359375,-0.42724609375
22783.897454,0.487548828125,0.5924072265625,0.9932861328125,-7.14111328125,85.693359375,-0.42724609375
22783.89858525,0.487548828125,0.5667724609375,0.9932861328125,-7.14111328125,85.693359375,-0.42724609375
22783.928118125,0.487548828125,0.5667724609375,0.9093017578125,-7.14111328125,85.693359375,-0.42724609375
22783.928555666,0.487548828125,0.5667724609375,0.9093017578125,-47.91259765625,85.693359375,-0.42724609375
22783.928734125,0.24560546875,0.5667724609375,0.9093017578125,-47.91259765625,85.693359375,-0.42724609375
22783.928857625,0.24560546875,0.459716796875,0.9093017578125,-47.91259765625,85.693359375,-0.42724609375
22783.953058208,0.24560546875,0.459716796875,0.9093017578125,-24.2919921875,85.693359375,-0.42724609375
22783.953136041,0.24560546875,0.459716796875,0.9093017578125,-24.2919921875,80.078125,-0.42724609375
22783.953224666,0.24560546875,0.459716796875,0.9093017578125,-24.2919921875,80.078125,4.2724609375
22783.957625541,0.45751953125,0.459716796875,0.9093017578125,-24.2919921875,80.078125,4.2724609375
22783.957849958,0.45751953125,0.5281982421875,0.9093017578125,-24.2919921875,80.078125,4.2724609375
22783.957952333,0.45751953125,0.5281982421875,0.905517578125,-24.2919921875,80.078125,4.2724609375
22783.972563916,0.45751953125,0.5281982421875,0.905517578125,-24.2919921875,88.9892578125,4.2724609375
22783.972710291,0.45751953125,0.5281982421875,0.905517578125,-24.2919921875,88.9892578125,2.5634765625
22784.016697708,0.3221435546875,0.5281982421875,0.905517578125,-24.2919921875,88.9892578125,2.5634765625
22784.047743708,0.3221435546875,0.3900146484375,0.905517578125,-24.2919921875,88.9892578125,2.5634765625
22784.047988583,0.3221435546875,0.3900146484375,0.7598876953125,-24.2919921875,88.9892578125,2.5634765625
22784.048286791,0.3221435546875,0.3900146484375,0.7598876953125,-30.57861328125,88.9892578125,2.5634765625
22784.048592416,0.3778076171875,0.3900146484375,0.7598876953125,-30.57861328125,88.9892578125,2.5634765625
22784.070281541,0.3778076171875,0.3900146484375,0.7855224609375,-30.57861328125,88.9892578125,2.5634765625
22784.070378916,0.3778076171875,0.3900146484375,0.7855224609375,-30.517578125,88.9892578125,2.5634765625
22784.07046375,0.3778076171875,0.3900146484375,0.7855224609375,-30.517578125,98.6328125,2.5634765625
22784.123604333,0.7427978515625,0.3900146484375,0.7855224609375,-30.517578125,98.6328125,2.5634765625
22784.123898666,0.7427978515625,0.656005859375,0.7855224609375,-30.517578125,98.6328125,2.5634765625
22784.124036291,0.7427978515625,0.656005859375,1.2281494140625,-30.517578125,98.6328125,2.5634765625
22784.124241125,0.7427978515625,0.656005859375,1.2281494140625,-109.19189453125,98.6328125,2.5634765625
22784.153061416,0.419677734375,0.656005859375,1.2281494140625,-109.19189453125,98.6328125,2.5634765625
22784.153142458,0.419677734375,1.000732421875,1.2281494140625,-109.19189453125,98.6328125,2.5634765625
22784.153212291,0.419677734375,1.000732421875,1.0831298828125,-109.19189453125,98.6328125,2.5634765625
22784.153420083,0.419677734375,1.000732421875,1.0831298828125,-109.19189453125,35.15625,2.5634765625
22784.153528791,0.419677734375,1.000732421875,1.0831298828125,-109.19189453125,35.15625,-10.31494140625
22784.182487583,0.592041015625,1.000732421875,1.0831298828125,-109.19189453125,35.15625,-10.31494140625
22784.182672208,0.592041015625,0.4405517578125,1.0831298828125,-109.19189453125,35.15625,-10.31494140625
22784.183396208,0.592041015625,0.4405517578125,0.5843505859375,-109.19189453125,35.15625,-10.31494140625
22784.183570333,0.592041015625,0.4405517578125,0.5843505859375,44.3115234375,35.15625,-10.31494140625
22784.203052416,0.6214599609375,0.4405517578125,0.5843505859375,44.3115234375,35.15625,-10.31494140625
22784.203148958,0.6214599609375,0.326904296875,0.5843505859375,44.3115234375,35.15625,-10.31494140625
22784.203218666,0.6214599609375,0.326904296875,0.44921875,44.3115234375,35.15625,-10.31494140625
22784.203285,0.6214599609375,0.326904296875,0.44921875,17.15087890625,35.15625,-10.31494140625
22784.213340708,0.6214599609375,0.326904296875,0.44921875,17.15087890625,85.26611328125,-10.31494140625
22784.219808166,0.6214599609375,0.326904296875,0.44921875,17.15087890625,85.26611328125,16.845703125
22784.228366833,0.6593017578125,0.326904296875,0.44921875,17.15087890625,85.26611328125,16.845703125
22784.228542875,0.6593017578125,0.3641357421875,0.44921875,17.15087890625,85.26611328125,16.845703125
22784.243792,0.6593017578125,0.3641357421875,0.5482177734375,17.15087890625,85.26611328125,16.845703125
22784.244154916,0.6593017578125,0.3641357421875,0.5482177734375,7.4462890625,85.26611328125,16.845703125
22784.244268791,0.6593017578125,0.3641357421875,0.5482177734375,7.4462890625,78.61328125,16.845703125
22784.244352208,0.6593017578125,0.3641357421875,0.5482177734375,7.4462890625,78.61328125,3.60107421875
22784.258628166,0.7353515625,0.3641357421875,0.5482177734375,7.4462890625,78.61328125,3.60107421875
22784.258825166,0.7353515625,0.3564453125,0.5482177734375,7.4462890625,78.61328125,3.60107421875
22784.260604375,0.7353515625,0.3564453125,0.5511474609375,7.4462890625,78.61328125,3.60107421875
22784.260785916,0.7353515625,0.3564453125,0.5511474609375,-19.4091796875,78.61328125,3.60107421875
22784.274305083,0.7353515625,0.3564453125,0.5511474609375,-19.4091796875,61.8896484375,3.60107421875
22784.274458875,0.7353515625,0.3564453125,0.5511474609375,-19.4091796875,61.8896484375,-7.62939453125
22784.287649625,0.7088623046875,0.3564453125,0.5511474609375,-19.4091796875,61.8896484375,-7.62939453125
22784.287825125,0.7088623046875,0.3819580078125,0.5511474609375,-19.4091796875,61.8896484375,-7.62939453125
22784.288821083,0.7088623046875,0.3819580078125,0.581298828125,-19.4091796875,61.8896484375,-7.62939453125
22784.302880458,0.7088623046875,0.3819580078125,0.581298828125,-19.4091796875,50.59814453125,-7.62939453125
22784.303121083,0.7088623046875,0.3819580078125,0.581298828125,-19.4091796875,50.59814453125,-17.02880859375
22784.319131708,0.7864990234375,0.3819580078125,0.581298828125,-19.4091796875,50.59814453125,-17.02880859375
22784.319233083,0.7864990234375,0.549560546875,0.581298828125,-19.4091796875,50.59814453125,-17.02880859375
22784.319303958,0.7864990234375,0.549560546875,0.7900390625,-19.4091796875,50.59814453125,-17.02880859375
22784.335634166,0.7864990234375,0.549560546875,0.7900390625,-19.4091796875,43.212890625,-17.02880859375
22784.335711583,0.7864990234375,0.549560546875,0.7900390625,-19.4091796875,43.212890625,-22.39990234375
22784.352226583,0.79345703125,0.549560546875,0.7900390625,-19.4091796875,43.212890625,-22.39990234375
22784.352306,0.79345703125,0.5413818359375,0.7900390625,-19.4091796875,43.212890625,-22.39990234375
22784.352376875,0.79345703125,0.5413818359375,0.76904296875,-19.4091796875,43.212890625,-22.39990234375
22784.368843708,0.79345703125,0.5413818359375,0.76904296875,-19.4091796875,25.45166015625,-22.39990234375
22784.379257083,0.79345703125,0.5413818359375,0.76904296875,-19.4091796875,25.45166015625,-17.4560546875
22784.385468666,0.778564453125,0.5413818359375,0.76904296875,-19.4091796875,25.45166015625,-17.4560546875
22784.424010208,0.778564453125,0.5362548828125,0.76904296875,-19.4091796875,25.45166015625,-17.4560546875
22784.428094458,0.778564453125,0.5362548828125,0.9061279296875,-19.4091796875,25.45166015625,-17.4560546875
22784.42821875,0.778564453125,0.5362548828125,0.9061279296875,-19.4091796875,9.70458984375,-17.4560546875
22784.428291208,0.778564453125,0.5362548828125,0.9061279296875,-19.4091796875,9.70458984375,-13.24462890625
22784.453548958,0.778564453125,0.531494140625,0.9061279296875,-19.4091796875,9.70458984375,-13.24462890625
22784.453814291,0.778564453125,0.531494140625,0.94775390625,-19.4091796875,9.70458984375,-13.24462890625
22784.453925708,0.778564453125,0.531494140625,0.94775390625,4.39453125,9.70458984375,-13.24462890625
22784.453996458,0.778564453125,0.531494140625,0.94775390625,4.39453125,9.70458984375,-5.2490234375
NEW_REP,,,,,,
22784.4818715,0.771240234375,0.531494140625,0.94775390625,4.39453125,9.70458984375,-5.2490234375
22784.497950916,0.771240234375,0.6661376953125,0.94775390625,4.39453125,9.70458984375,-5.2490234375
22784.498187333,0.771240234375,0.6661376953125,0.9710693359375,4.39453125,9.70458984375,-5.2490234375
22784.498284666,0.771240234375,0.6661376953125,0.9710693359375,10.8642578125,9.70458984375,-5.2490234375
22784.526792458,0.7576904296875,0.6661376953125,0.9710693359375,10.8642578125,9.70458984375,-5.2490234375
22784.527903625,0.7576904296875,0.5450439453125,0.9710693359375,10.8642578125,9.70458984375,-5.2490234375
22784.528111125,0.7576904296875,0.5450439453125,0.9864501953125,10.8642578125,9.70458984375,-5.2490234375
22784.528204416,0.7576904296875,0.5450439453125,0.9864501953125,10.8642578125,-82.09228515625,-5.2490234375
22784.544518041,0.716552734375,0.5450439453125,0.9864501953125,10.8642578125,-82.09228515625,-5.2490234375
22784.544822083,0.716552734375,0.6495361328125,0.9864501953125,10.8642578125,-82.09228515625,-5.2490234375
22784.544920041,0.716552734375,0.6495361328125,0.8604736328125,10.8642578125,-82.09228515625,-5.2490234375
22784.544992416,0.716552734375,0.6495361328125,0.8604736328125,68.359375,-82.09228515625,-5.2490234375
22784.558493708,0.716552734375,0.6495361328125,0.8604736328125,68.359375,-108.88671875,-5.2490234375
22784.558680208,0.716552734375,0.6495361328125,0.8604736328125,68.359375,-108.88671875,32.1044921875
22784.573412291,0.6207275390625,0.6495361328125,0.8604736328125,68.359375,-108.88671875,32.1044921875
22784.573584833,0.6207275390625,0.4007568359375,0.8604736328125,68.359375,-108.88671875,32.1044921875
22784.573645083,0.6207275390625,0.4007568359375,0.3968505859375,68.359375,-108.88671875,32.1044921875
22784.589006,0.6207275390625,0.4007568359375,0.3968505859375,68.359375,-89.17236328125,32.1044921875
22784.589132333,0.6207275390625,0.4007568359375,0.3968505859375,68.359375,-89.17236328125,31.982421875
22784.617570833,0.685546875,0.4007568359375,0.3968505859375,68.359375,-89.17236328125,31.982421875
22784.61928075,0.685546875,0.4378662109375,0.3968505859375,68.359375,-89.17236328125,31.982421875
22784.619479416,0.685546875,0.4378662109375,0.487060546875,68.359375,-89.17236328125,31.982421875
22784.619583041,0.685546875,0.4378662109375,0.487060546875,68.359375,-70.61767578125,31.982421875
22784.6358805,0.8543701171875,0.4378662109375,0.487060546875,68.359375,-70.61767578125,31.982421875
22784.635951625,0.8543701171875,0.4151611328125,0.487060546875,68.359375,-70.61767578125,31.982421875
22784.636012875,0.8543701171875,0.4151611328125,0.49072265625,68.359375,-70.61767578125,31.982421875
22784.652824958,0.8543701171875,0.4151611328125,0.49072265625,68.359375,-62.31689453125,31.982421875
22784.652907791,0.8543701171875,0.4151611328125,0.49072265625,68.359375,-62.31689453125,0.6103515625
22784.67826725,0.7218017578125,0.4151611328125,0.49072265625,68.359375,-62.31689453125,0.6103515625
22784.678439083,0.7218017578125,0.3812255859375,0.49072265625,68.359375,-62.31689453125,0.6103515625
22784.739125916,0.7218017578125,0.3812255859375,0.871337890625,68.359375,-62.31689453125,0.6103515625
22784.739437041,0.7218017578125,0.3812255859375,0.871337890625,68.359375,-70.98388671875,0.6103515625
22784.739561583,0.716796875,0.3812255859375,0.871337890625,68.359375,-70.98388671875,0.6103515625
22784.739645958,0.716796875,0.6612548828125,0.871337890625,68.359375,-70.98388671875,0.6103515625
22784.75452325,0.716796875,0.6612548828125,0.871337890625,-12.5732421875,-70.98388671875,0.6103515625
