Timestamp,Accel_X,Accel_Y,Accel_Z,Gyro_X,Gyro_Y,Gyro_Z
21665.511203375,0.0323486328125,0.0,0.0,0.0,0.0,0.0
21665.5257335,0.0340576171875,0.0,0.0,0.0,0.0,0.0
21665.555966833,0.0340576171875,0.0,0.0,0.0,0.0,0.0
21665.556187208,0.0340576171875,0.0069580078125,0.0,0.0,0.0,0.0
21665.60002075,0.0340576171875,0.0069580078125,0.0,0.0,0.0,0.0
21665.60019325,0.0340576171875,-0.0037841796875,0.0,0.0,0.0,0.0
21665.601837166,0.0318603515625,-0.0037841796875,0.0,0.0,0.0,0.0
21665.630462625,0.03515625,-0.0037841796875,0.0,0.0,0.0,0.0
21665.6363165,0.03515625,0.0040283203125,0.0,0.0,0.0,0.0
21665.636422041,0.03515625,0.0040283203125,0.9739990234375,0.0,0.0,0.0
21665.66000525,0.03271484375,0.0040283203125,0.9739990234375,0.0,0.0,0.0
21665.660173875,0.03271484375,0.0098876953125,0.9739990234375,0.0,0.0,0.0
21665.676767625,0.0299072265625,0.0098876953125,0.9739990234375,0.0,0.0,0.0
21665.691474875,0.0299072265625,0.0,0.9739990234375,0.0,0.0,0.0
21665.69175,0.0299072265625,0.0,0.973876953125,0.0,0.0,0.0
21665.692055916,0.0311279296875,0.0,0.973876953125,0.0,0.0,0.0
21665.705733666,0.0311279296875,0.0,0.973876953125,2.38037109375,0.0,0.0
21665.709079083,0.0311279296875,0.0,0.973876953125,2.38037109375,-0.18310546875,0.0
21665.734968791,0.03369140625,0.0,0.973876953125,2.38037109375,-0.18310546875,0.0
21665.735059291,0.03369140625,0.0042724609375,0.973876953125,2.38037109375,-0.18310546875,0.0
21665.735661583,0.03369140625,0.0042724609375,0.9739990234375,2.38037109375,-0.18310546875,0.0
21665.749612416,0.0364990234375,0.0042724609375,0.9739990234375,2.38037109375,-0.18310546875,0.0
21665.781131708,0.0364990234375,0.0018310546875,0.9739990234375,2.38037109375,-0.18310546875,0.0
21665.781424708,0.0364990234375,0.0018310546875,0.9725341796875,2.38037109375,-0.18310546875,0.0
21665.811086375,0.0364990234375,0.0018310546875,0.9725341796875,2.38037109375,-0.18310546875,0.0
21665.811523958,0.0364990234375,0.0018310546875,0.9725341796875,2.38037109375,-0.18310546875,1.28173828125
21665.811654875,0.0364990234375,0.004638671875,0.9725341796875,2.38037109375,-0.18310546875,1.28173828125
21665.811766041,0.0364990234375,0.004638671875,0.9713134765625,2.38037109375,-0.18310546875,1.28173828125
21665.836742833,0.0364990234375,0.004638671875,0.9713134765625,2.38037109375,-0.18310546875,1.28173828125
21665.836847,0.0364990234375,0.004638671875,0.9713134765625,2.38037109375,-0.18310546875,1.15966796875
21665.840023375,0.0361328125,0.004638671875,0.9713134765625,2.38037109375,-0.18310546875,1.15966796875
21665.854580125,0.0361328125,0.0040283203125,0.9713134765625,2.38037109375,-0.18310546875,1.15966796875
21665.854784208,0.0361328125,0.0040283203125,0.9736328125,2.38037109375,-0.18310546875,1.15966796875
21665.856003708,0.0361328125,0.0040283203125,0.9736328125,2.38037109375,-0.18310546875,1.15966796875
21665.85837725,0.0361328125,0.0040283203125,0.9736328125,2.38037109375,-0.18310546875,1.46484375
21665.870005458,0.036376953125,0.0040283203125,0.9736328125,2.38037109375,-0.18310546875,1.46484375
21665.870283291,0.036376953125,0.0096435546875,0.9736328125,2.38037109375,-0.18310546875,1.46484375
21665.870390625,0.036376953125,0.0096435546875,0.9727783203125,2.38037109375,-0.18310546875,1.46484375
21665.886570875,0.036376953125,0.0096435546875,0.9727783203125,2.38037109375,-0.3662109375,1.46484375
21665.886669375,0.036376953125,0.0096435546875,0.9727783203125,2.38037109375,-0.3662109375,1.5869140625
21665.9033625,0.0355224609375,0.0096435546875,0.9727783203125,2.38037109375,-0.3662109375,1.5869140625
21665.903456416,0.0355224609375,0.0069580078125,0.9727783203125,2.38037109375,-0.3662109375,1.5869140625
21665.903540333,0.0355224609375,0.0069580078125,0.9759521484375,2.38037109375,-0.3662109375,1.5869140625
21665.919733708,0.0355224609375,0.0069580078125,0.9759521484375,2.38037109375,-0.54931640625,1.5869140625
21665.919845833,0.0355224609375,0.0069580078125,0.9759521484375,2.38037109375,-0.54931640625,1.28173828125
21665.93653375,0.0361328125,0.0069580078125,0.9759521484375,2.38037109375,-0.54931640625,1.28173828125
21665.936627208,0.0361328125,0.0029296875,0.9759521484375,2.38037109375,-0.54931640625,1.28173828125
21665.946717791,0.0361328125,0.0029296875,0.971923828125,2.38037109375,-0.54931640625,1.28173828125
21665.952767125,0.0361328125,0.0029296875,0.971923828125,2.38037109375,-0.3662109375,1.28173828125
21665.952875916,0.0361328125,0.0029296875,0.971923828125,2.38037109375,-0.3662109375,1.0986328125
21665.961569833,0.03369140625,0.0029296875,0.971923828125,2.38037109375,-0.3662109375,1.0986328125
21665.961722708,0.03369140625,0.0069580078125,0.971923828125,2.38037109375,-0.3662109375,1.0986328125
21665.975419041,0.03369140625,0.0069580078125,0.9757080078125,2.38037109375,-0.3662109375,1.0986328125
21665.975597416,0.03369140625,0.0069580078125,0.9757080078125,2.38037109375,-0.3662109375,1.0986328125
21665.975685916,0.03369140625,0.0069580078125,0.9757080078125,2.38037109375,-0.3662109375,1.0986328125
21666.004583583,0.0296630859375,0.0069580078125,0.9757080078125,2.38037109375,-0.3662109375,1.0986328125
21666.00469225,0.0296630859375,0.0030517578125,0.9757080078125,2.38037109375,-0.3662109375,1.0986328125
21666.006207833,0.0296630859375,0.0030517578125,0.9720458984375,2.38037109375,-0.3662109375,1.0986328125
21666.00945775,0.0296630859375,0.0030517578125,0.9720458984375,2.38037109375,-0.42724609375,1.0986328125
21666.03459525,0.033935546875,0.0030517578125,0.9720458984375,2.38037109375,-0.42724609375,1.0986328125
21666.034639625,0.033935546875,0.0111083984375,0.9720458984375,2.38037109375,-0.42724609375,1.0986328125
21666.03470975,0.033935546875,0.0111083984375,0.9736328125,2.38037109375,-0.42724609375,1.0986328125
21666.034841791,0.033935546875,0.0111083984375,0.9736328125,2.38037109375,-0.732421875,1.0986328125
21666.034915958,0.033935546875,0.0111083984375,0.9736328125,2.38037109375,-0.732421875,1.64794921875
21666.064368666,0.034912109375,0.0111083984375,0.9736328125,2.38037109375,-0.732421875,1.64794921875
21666.064448,0.034912109375,0.01123046875,0.9736328125,2.38037109375,-0.732421875,1.64794921875
21666.065359,0.034912109375,0.01123046875,0.975341796875,2.38037109375,-0.732421875,1.64794921875
21666.065449083,0.034912109375,0.01123046875,0.975341796875,2.38037109375,-0.48828125,1.64794921875
21666.095605375,0.0362548828125,0.01123046875,0.975341796875,2.38037109375,-0.48828125,1.64794921875
21666.101431791,0.0362548828125,0.0042724609375,0.975341796875,2.38037109375,-0.48828125,1.64794921875
21666.101529791,0.0362548828125,0.0042724609375,0.9737548828125,2.38037109375,-0.48828125,1.64794921875
21666.109602875,0.0362548828125,0.0042724609375,0.9737548828125,2.38037109375,-0.732421875,1.64794921875
21666.109682958,0.0362548828125,0.0042724609375,0.9737548828125,2.38037109375,-0.732421875,1.77001953125
21666.138074875,0.0355224609375,0.0042724609375,0.9737548828125,2.38037109375,-0.732421875,1.77001953125
21666.140971208,0.0355224609375,0.00390625,0.9737548828125,2.38037109375,-0.732421875,1.77001953125
21666.15459175,0.0355224609375,0.00390625,0.9736328125,2.38037109375,-0.732421875,1.77001953125
21666.154746041,0.0355224609375,0.00390625,0.9736328125,1.8310546875,-0.732421875,1.77001953125
21666.154821583,0.0352783203125,0.00390625,0.9736328125,1.8310546875,-0.732421875,1.77001953125
21666.156184125,0.0352783203125,0.0059814453125,0.9736328125,1.8310546875,-0.732421875,1.77001953125
21666.169773583,0.0352783203125,0.0059814453125,0.9736328125,1.8310546875,-0.48828125,1.77001953125
21666.185544375,0.0352783203125,0.0059814453125,0.9736328125,1.8310546875,-0.48828125,1.89208984375
21666.185651041,0.031494140625,0.0059814453125,0.9736328125,1.8310546875,-0.48828125,1.89208984375
21666.1872505,0.031494140625,0.0064697265625,0.9736328125,1.8310546875,-0.48828125,1.89208984375
21666.18734475,0.031494140625,0.0064697265625,0.9803466796875,1.8310546875,-0.48828125,1.89208984375
21666.216696333,0.031494140625,0.0064697265625,0.9803466796875,1.8310546875,-0.48828125,1.89208984375
21666.216931041,0.031494140625,0.0064697265625,0.9803466796875,1.8310546875,-0.48828125,2.50244140625
21666.216986583,0.0284423828125,0.0064697265625,0.9803466796875,1.8310546875,-0.48828125,2.50244140625
21666.217237,0.0284423828125,-0.00146484375,0.9803466796875,1.8310546875,-0.48828125,2.50244140625
21666.235020375,0.0284423828125,-0.00146484375,0.9803466796875,1.8310546875,-0.244140625,2.50244140625
21666.244350791,0.0284423828125,-0.00146484375,0.9803466796875,1.8310546875,-0.244140625,2.8076171875
21666.274256291,0.044921875,-0.00146484375,0.9803466796875,1.8310546875,-0.244140625,2.8076171875
21666.274400708,0.044921875,-0.001953125,0.9803466796875,1.8310546875,-0.244140625,2.8076171875
21666.275981583,0.044921875,-0.001953125,0.982666015625,1.8310546875,-0.244140625,2.8076171875
21666.276099416,0.044921875,-0.001953125,0.982666015625,1.8310546875,0.244140625,2.8076171875
21666.290317125,0.0443115234375,-0.001953125,0.982666015625,1.8310546875,0.244140625,2.8076171875
21666.303789416,0.0443115234375,-0.0721435546875,0.982666015625,1.8310546875,0.244140625,2.8076171875
21666.32022975,0.0443115234375,-0.0721435546875,0.977783203125,1.8310546875,0.244140625,2.8076171875
21666.320397791,0.0443115234375,-0.0721435546875,0.977783203125,1.8310546875,-0.54931640625,2.8076171875
21666.320468458,0.0443115234375,-0.0721435546875,0.977783203125,1.8310546875,-0.54931640625,2.44140625
21666.365472666,0.081787109375,-0.0721435546875,0.977783203125,1.8310546875,-0.54931640625,2.44140625
21666.365660666,0.081787109375,-0.17626953125,0.977783203125,1.8310546875,-0.54931640625,2.44140625
21666.36573,0.081787109375,-0.17626953125,1.000244140625,1.8310546875,-0.54931640625,2.44140625
21666.366100833,0.11376953125,-0.17626953125,1.000244140625,1.8310546875,-0.54931640625,2.44140625
21666.385367583,0.11376953125,-0.17626953125,0.9970703125,1.8310546875,-0.54931640625,2.44140625
21666.395067,0.11376953125,-0.17626953125,0.9970703125,-39.794921875,-0.54931640625,2.44140625
21666.395190833,0.11376953125,-0.17626953125,0.9970703125,-39.794921875,1.46484375,2.44140625
21666.402236083,0.188720703125,-0.17626953125,0.9970703125,-39.794921875,1.46484375,2.44140625
21666.402306166,0.188720703125,0.0836181640625,0.9970703125,-39.794921875,1.46484375,2.44140625
21666.402357625,0.188720703125,0.0836181640625,0.9923095703125,-39.794921875,1.46484375,2.44140625
21666.410846125,0.188720703125,0.0836181640625,0.9923095703125,-63.8427734375,1.46484375,2.44140625
21666.410970916,0.188720703125,0.0836181640625,0.9923095703125,-63.8427734375,-3.60107421875,2.44140625
21666.42457375,0.188720703125,0.0836181640625,0.9923095703125,-63.8427734375,-3.60107421875,-20.32470703125
21666.48706475,0.1624755859375,0.0836181640625,0.9923095703125,-63.8427734375,-3.60107421875,-20.32470703125
21666.487318,0.1624755859375,0.1776123046875,0.9923095703125,-63.8427734375,-3.60107421875,-20.32470703125
21666.487391458,0.1624755859375,0.1776123046875,0.9925537109375,-63.8427734375,-3.60107421875,-20.32470703125
21666.48750075,0.1624755859375,0.1776123046875,0.9925537109375,-63.8427734375,-10.009765625,-20.32470703125
21666.516296333,0.118896484375,0.1776123046875,0.9925537109375,-63.8427734375,-10.009765625,-20.32470703125
21666.531746791,0.118896484375,-0.0628662109375,0.9925537109375,-63.8427734375,-10.009765625,-20.32470703125
21666.531938291,0.118896484375,-0.0628662109375,1.0047607421875,-63.8427734375,-10.009765625,-20.32470703125
21666.532012083,0.118896484375,-0.0628662109375,1.0047607421875,-63.8427734375,-14.58740234375,-20.32470703125
21666.552811291,0.15185546875,-0.0628662109375,1.0047607421875,-63.8427734375,-14.58740234375,-20.32470703125
21666.552895,0.15185546875,0.123779296875,1.0047607421875,-63.8427734375,-14.58740234375,-20.32470703125
21666.552959,0.15185546875,0.123779296875,0.7806396484375,-63.8427734375,-14.58740234375,-20.32470703125
21666.55972775,0.15185546875,0.123779296875,0.7806396484375,-63.8427734375,-11.23046875,-20.32470703125
21666.559902125,0.15185546875,0.123779296875,0.7806396484375,-63.8427734375,-11.23046875,-53.77197265625
21666.589580041,0.1949462890625,0.123779296875,0.7806396484375,-63.8427734375,-11.23046875,-53.77197265625
21666.589740958,0.1949462890625,0.271240234375,0.7806396484375,-63.8427734375,-11.23046875,-53.77197265625
21666.59038625,0.1949462890625,0.271240234375,0.721435546875,-63.8427734375,-11.23046875,-53.77197265625
21666.619513,0.1949462890625,0.271240234375,0.721435546875,-86.5478515625,-11.23046875,-53.77197265625
21666.619704208,0.1962890625,0.271240234375,0.721435546875,-86.5478515625,-11.23046875,-53.77197265625
21666.620601666,0.1962890625,0.311767578125,0.721435546875,-86.5478515625,-11.23046875,-53.77197265625
21666.620795791,0.1962890625,0.311767578125,0.721435546875,-86.5478515625,11.53564453125,-53.77197265625
21666.636655875,0.19970703125,0.311767578125,0.721435546875,-86.5478515625,11.53564453125,-53.77197265625
21666.636748375,0.19970703125,0.438720703125,0.721435546875,-86.5478515625,11.53564453125,-53.77197265625
21666.63683325,0.19970703125,0.438720703125,0.55126953125,-86.5478515625,11.53564453125,-53.77197265625
21666.665754916,0.19970703125,0.438720703125,0.55126953125,-86.5478515625,25.146484375,-53.77197265625
21666.66601825,0.19970703125,0.438720703125,0.55126953125,-86.5478515625,25.146484375,-62.98828125
21666.666105458,0.1983642578125,0.438720703125,0.55126953125,-86.5478515625,25.146484375,-62.98828125
21666.667999458,0.1983642578125,0.4664306640625,0.55126953125,-86.5478515625,25.146484375,-62.98828125
21666.686671458,0.1983642578125,0.4664306640625,0.55126953125,-86.5478515625,36.43798828125,-62.98828125
21666.686769916,0.1983642578125,0.4664306640625,0.55126953125,-86.5478515625,36.43798828125,-66.5283203125
21666.710293291,0.23974609375,0.4664306640625,0.55126953125,-86.5478515625,36.43798828125,-66.5283203125
21666.710546833,0.23974609375,0.52734375,0.55126953125,-86.5478515625,36.43798828125,-66.5283203125
21666.710636083,0.23974609375,0.52734375,0.59521484375,-86.5478515625,36.43798828125,-66.5283203125
21666.71086425,0.23974609375,0.52734375,0.59521484375,-103.82080078125,36.43798828125,-66.5283203125
21666.724551333,0.25732421875,0.52734375,0.59521484375,-103.82080078125,36.43798828125,-66.5283203125
21666.724753041,0.25732421875,0.505126953125,0.59521484375,-103.82080078125,36.43798828125,-66.5283203125
21666.7253255,0.25732421875,0.505126953125,0.631591796875,-103.82080078125,36.43798828125,-66.5283203125
21666.754812916,0.25732421875,0.505126953125,0.631591796875,-103.82080078125,50.72021484375,-66.5283203125
21666.755070958,0.25732421875,0.505126953125,0.631591796875,-103.82080078125,50.72021484375,-73.54736328125
21666.755549333,0.2523193359375,0.505126953125,0.631591796875,-103.82080078125,50.72021484375,-73.54736328125
21666.7558275,0.2523193359375,0.65869140625,0.631591796875,-103.82080078125,50.72021484375,-73.54736328125
21666.77003675,0.2523193359375,0.65869140625,0.631591796875,-103.82080078125,48.095703125,-73.54736328125
21666.770200375,0.2523193359375,0.65869140625,0.631591796875,-103.82080078125,48.095703125,-76.416015625
21666.787135541,0.26123046875,0.65869140625,0.631591796875,-103.82080078125,48.095703125,-76.416015625
21666.787215375,0.26123046875,0.834716796875,0.631591796875,-103.82080078125,48.095703125,-76.416015625
21666.787286583,0.26123046875,0.834716796875,0.628662109375,-103.82080078125,48.095703125,-76.416015625
21666.803175583,0.26123046875,0.834716796875,0.628662109375,-103.82080078125,43.88427734375,-76.416015625
21666.803271208,0.26123046875,0.834716796875,0.628662109375,-103.82080078125,43.88427734375,-69.580078125
21666.819734166,0.27294921875,0.834716796875,0.628662109375,-103.82080078125,43.88427734375,-69.580078125
21666.859791041,0.27294921875,0.78515625,0.628662109375,-103.82080078125,43.88427734375,-69.580078125
21666.874491458,0.27294921875,0.78515625,0.6209716796875,-103.82080078125,43.88427734375,-69.580078125
21666.874593041,0.27294921875,0.78515625,0.6209716796875,-103.82080078125,48.15673828125,-69.580078125
21666.934885291,0.27294921875,0.78515625,0.6209716796875,-103.82080078125,48.15673828125,-66.95556640625
21666.935146666,0.27294921875,0.9281005859375,0.6209716796875,-103.82080078125,48.15673828125,-66.95556640625
21666.93566125,0.27294921875,0.9281005859375,0.6209716796875,-54.6875,48.15673828125,-66.95556640625
21666.952678625,0.27294921875,0.9281005859375,0.6209716796875,-54.6875,46.630859375,-66.95556640625
21666.952777041,0.402099609375,0.9281005859375,0.6209716796875,-54.6875,46.630859375,-66.95556640625
21666.969899625,0.402099609375,0.861083984375,0.6209716796875,-54.6875,46.630859375,-66.95556640625
21666.969976166,0.402099609375,0.861083984375,0.692626953125,-54.6875,46.630859375,-66.95556640625
21666.970050208,0.402099609375,0.861083984375,0.692626953125,-54.6875,32.16552734375,-66.95556640625
21666.997070666,0.4051513671875,0.861083984375,0.692626953125,-54.6875,32.16552734375,-66.95556640625
21667.002448708,0.4051513671875,0.8470458984375,0.692626953125,-54.6875,32.16552734375,-66.95556640625
21667.0098155,0.4051513671875,0.8470458984375,0.692626953125,-54.6875,6.4697265625,-66.95556640625
21667.009992,0.4051513671875,0.8470458984375,0.692626953125,-54.6875,6.4697265625,-1.220703125
21667.03963425,0.39208984375,0.8470458984375,0.692626953125,-54.6875,6.4697265625,-1.220703125
21667.039817291,0.39208984375,0.7813720703125,0.692626953125,-54.6875,6.4697265625,-1.220703125
21667.054757958,0.39208984375,0.7813720703125,0.6302490234375,-54.6875,6.4697265625,-1.220703125
21667.0585435,0.39208984375,0.7813720703125,0.6302490234375,-26.7333984375,6.4697265625,-1.220703125
21667.058806416,0.3758544921875,0.7813720703125,0.6302490234375,-26.7333984375,6.4697265625,-1.220703125
21667.058891833,0.3758544921875,0.703125,0.6302490234375,-26.7333984375,6.4697265625,-1.220703125
21667.086199208,0.3758544921875,0.703125,0.6302490234375,-26.7333984375,0.48828125,-1.220703125
21667.0862825,0.3758544921875,0.703125,0.6302490234375,-26.7333984375,0.48828125,11.71875
21667.103104,0.400634765625,0.703125,0.6302490234375,-26.7333984375,0.48828125,11.71875
21667.103180083,0.400634765625,0.7095947265625,0.6302490234375,-26.7333984375,0.48828125,11.71875
21667.128677208,0.400634765625,0.7095947265625,0.513427734375,-26.7333984375,0.48828125,11.71875
21667.14448475,0.400634765625,0.7095947265625,0.513427734375,-26.7333984375,0.48828125,12.14599609375
21667.144641583,0.446044921875,0.7095947265625,0.513427734375,-26.7333984375,0.48828125,12.14599609375
21667.145331666,0.446044921875,0.6417236328125,0.513427734375,-26.7333984375,0.48828125,12.14599609375
21667.152439583,0.446044921875,0.6417236328125,0.5345458984375,-26.7333984375,0.48828125,12.14599609375
21667.174341208,0.453857421875,0.6417236328125,0.5345458984375,-26.7333984375,0.48828125,12.14599609375
21667.174508916,0.453857421875,0.615478515625,0.5345458984375,-26.7333984375,0.48828125,12.14599609375
21667.175496791,0.453857421875,0.615478515625,0.4710693359375,-26.7333984375,0.48828125,12.14599609375
21667.190141375,0.453857421875,0.615478515625,0.4710693359375,-26.7333984375,-0.3662109375,12.14599609375
21667.190307083,0.453857421875,0.615478515625,0.4710693359375,-26.7333984375,-0.3662109375,3.173828125
21667.234595208,0.4676513671875,0.615478515625,0.4710693359375,-26.7333984375,-0.3662109375,3.173828125
21667.23478725,0.4676513671875,0.6383056640625,0.4710693359375,-26.7333984375,-0.3662109375,3.173828125
21667.238764166,0.4676513671875,0.6383056640625,0.4674072265625,-26.7333984375,-0.3662109375,3.173828125
21667.238852166,0.4676513671875,0.6383056640625,0.4674072265625,-26.7333984375,-3.47900390625,3.173828125
21667.2694735,0.468017578125,0.6383056640625,0.4674072265625,-26.7333984375,-3.47900390625,3.173828125
21667.269594541,0.468017578125,0.7122802734375,0.4674072265625,-26.7333984375,-3.47900390625,3.173828125
21667.269663958,0.468017578125,0.7122802734375,0.4642333984375,-26.7333984375,-3.47900390625,3.173828125
21667.269732333,0.468017578125,0.7122802734375,0.4642333984375,-26.7333984375,-3.173828125,3.173828125
21667.269799875,0.468017578125,0.7122802734375,0.4642333984375,-26.7333984375,-3.173828125,-5.2490234375
21667.309793333,0.4732666015625,0.7122802734375,0.4642333984375,-26.7333984375,-3.173828125,-5.2490234375
21667.309998166,0.4732666015625,0.6810302734375,0.4642333984375,-26.7333984375,-3.173828125,-5.2490234375
21667.310476916,0.4732666015625,0.6810302734375,0.4486083984375,-26.7333984375,-3.173828125,-5.2490234375
21667.324565708,0.4732666015625,0.6810302734375,0.4486083984375,-11.77978515625,-3.173828125,-5.2490234375
21667.32474375,0.471435546875,0.6810302734375,0.4486083984375,-11.77978515625,-3.173828125,-5.2490234375
21667.325571375,0.471435546875,0.711669921875,0.4486083984375,-11.77978515625,-3.173828125,-5.2490234375
21667.352828458,0.471435546875,0.711669921875,0.4703369140625,-11.77978515625,-3.173828125,-5.2490234375
21667.369576833,0.471435546875,0.711669921875,0.4703369140625,-11.77978515625,1.52587890625,-5.2490234375
21667.385938,0.471435546875,0.711669921875,0.4703369140625,-11.77978515625,1.52587890625,-5.9814453125
21667.386893375,0.479736328125,0.711669921875,0.4703369140625,-11.77978515625,1.52587890625,-5.9814453125
21667.387114583,0.479736328125,0.7431640625,0.4703369140625,-11.77978515625,1.52587890625,-5.9814453125
21667.387208666,0.479736328125,0.7431640625,0.4703369140625,-11.77978515625,0.3662109375,-5.9814453125
21667.414547125,0.465087890625,0.7431640625,0.4703369140625,-11.77978515625,0.3662109375,-5.9814453125
21667.429338916,0.465087890625,0.698974609375,0.4703369140625,-11.77978515625,0.3662109375,-5.9814453125
21667.429474541,0.465087890625,0.698974609375,0.4703369140625,-11.77978515625,0.3662109375,-5.9814453125
21667.4753505,0.465087890625,0.698974609375,0.4703369140625,-11.77978515625,0.48828125,-5.9814453125
21667.486865333,0.465087890625,0.698974609375,0.4703369140625,-11.77978515625,0.48828125,-5.2490234375
21667.487020458,0.46826171875,0.698974609375,0.4703369140625,-11.77978515625,0.48828125,-5.2490234375
21667.487107166,0.46826171875,0.7022705078125,0.4703369140625,-11.77978515625,0.48828125,-5.2490234375
21667.490305916,0.46826171875,0.7022705078125,0.4703369140625,-11.77978515625,2.3193359375,-5.2490234375
21667.490487083,0.46826171875,0.7022705078125,0.4703369140625,-11.77978515625,2.3193359375,-7.6904296875
21667.504231166,0.4935302734375,0.7022705078125,0.4703369140625,-11.77978515625,2.3193359375,-7.6904296875
21667.504413,0.4935302734375,0.708740234375,0.4703369140625,-11.77978515625,2.3193359375,-7.6904296875
21667.505394708,0.4935302734375,0.708740234375,0.55859375,-11.77978515625,2.3193359375,-7.6904296875
21667.519823875,0.4935302734375,0.708740234375,0.55859375,-11.77978515625,7.8125,-7.6904296875
21667.519935875,0.4935302734375,0.708740234375,0.55859375,-11.77978515625,7.8125,-14.404296875
21667.537140708,0.499267578125,0.708740234375,0.55859375,-11.77978515625,7.8125,-14.404296875
21667.5374095,0.499267578125,0.680908203125,0.55859375,-11.77978515625,7.8125,-14.404296875
21667.5375215,0.499267578125,0.680908203125,0.63916015625,-11.77978515625,7.8125,-14.404296875
21667.553067166,0.499267578125,0.680908203125,0.63916015625,-11.77978515625,8.056640625,-14.404296875
21667.553162416,0.499267578125,0.680908203125,0.63916015625,-11.77978515625,8.056640625,-19.10400390625
21667.580050375,0.520263671875,0.680908203125,0.63916015625,-11.77978515625,8.056640625,-19.10400390625
21667.586226166,0.520263671875,0.7501220703125,0.63916015625,-11.77978515625,8.056640625,-19.10400390625
21667.594313291,0.520263671875,0.7501220703125,0.757080078125,-11.77978515625,8.056640625,-19.10400390625
21667.594510083,0.520263671875,0.7501220703125,0.757080078125,-11.77978515625,-2.13623046875,-19.10400390625
21667.595252333,0.520263671875,0.7501220703125,0.757080078125,-11.77978515625,-2.13623046875,-19.287109375
21667.624892625,0.5399169921875,0.7501220703125,0.757080078125,-11.77978515625,-2.13623046875,-19.287109375
21667.628848416,0.5399169921875,0.6708984375,0.757080078125,-11.77978515625,-2.13623046875,-19.287109375
21667.6393885,0.5399169921875,0.6708984375,0.8995361328125,-11.77978515625,-2.13623046875,-19.287109375
21667.644174166,0.5399169921875,0.6708984375,0.8995361328125,59.99755859375,-2.13623046875,-19.287109375
21667.644387083,0.564697265625,0.6708984375,0.8995361328125,59.99755859375,-2.13623046875,-19.287109375
21667.644474208,0.564697265625,0.657470703125,0.8995361328125,59.99755859375,-2.13623046875,-19.287109375
21667.654401083,0.564697265625,0.657470703125,0.8995361328125,55.23681640625,-2.13623046875,-19.287109375
21667.669530625,0.564697265625,0.657470703125,0.8995361328125,55.23681640625,-29.541015625,-19.287109375
21667.669777708,0.564697265625,0.657470703125,0.8995361328125,55.23681640625,-29.541015625,-14.2822265625
21667.686583458,0.606689453125,0.657470703125,0.8995361328125,55.23681640625,-29.541015625,-14.2822265625
21667.686664375,0.606689453125,0.7288818359375,0.8995361328125,55.23681640625,-29.541015625,-14.2822265625
21667.686735166,0.606689453125,0.7288818359375,0.98193359375,55.23681640625,-29.541015625,-14.2822265625
21667.6868045,0.606689453125,0.7288818359375,0.98193359375,55.23681640625,-48.2177734375,-14.2822265625
21667.70297725,0.6248779296875,0.7288818359375,0.98193359375,55.23681640625,-48.2177734375,-14.2822265625
21667.703063875,0.6248779296875,0.7607421875,0.98193359375,55.23681640625,-48.2177734375,-14.2822265625
21667.719578708,0.6248779296875,0.7607421875,0.9906005859375,55.23681640625,-48.2177734375,-14.2822265625
21667.719660666,0.6248779296875,0.7607421875,0.9906005859375,55.23681640625,-59.5703125,-14.2822265625
21667.719746083,0.6248779296875,0.7607421875,0.9906005859375,55.23681640625,-59.5703125,-2.5634765625
21667.75961075,0.634033203125,0.7607421875,0.9906005859375,55.23681640625,-59.5703125,-2.5634765625
21667.75979675,0.634033203125,0.75048828125,0.9906005859375,55.23681640625,-59.5703125,-2.5634765625
21667.760470166,0.634033203125,0.75048828125,1.0389404296875,55.23681640625,-59.5703125,-2.5634765625
21667.762167083,0.634033203125,0.75048828125,1.0389404296875,79.77294921875,-59.5703125,-2.5634765625
21667.786404958,0.650634765625,0.75048828125,1.0389404296875,79.77294921875,-59.5703125,-2.5634765625
21667.78648475,0.650634765625,0.7454833984375,1.0389404296875,79.77294921875,-59.5703125,-2.5634765625
21667.786554208,0.650634765625,0.7454833984375,1.00048828125,79.77294921875,-59.5703125,-2.5634765625
21667.789665666,0.650634765625,0.7454833984375,1.00048828125,79.77294921875,-84.8388671875,-2.5634765625
21667.789853333,0.650634765625,0.7454833984375,1.00048828125,79.77294921875,-84.8388671875,12.939453125
21667.819817791,0.6273193359375,0.7454833984375,1.00048828125,79.77294921875,-84.8388671875,12.939453125
21667.819929,0.6273193359375,0.7626953125,1.00048828125,79.77294921875,-84.8388671875,12.939453125
21667.821285083,0.6273193359375,0.7626953125,0.996337890625,79.77294921875,-84.8388671875,12.939453125
21667.821458166,0.6273193359375,0.7626953125,0.996337890625,81.787109375,-84.8388671875,12.939453125
21667.836106,0.5648193359375,0.7626953125,0.996337890625,81.787109375,-84.8388671875,12.939453125
21667.853300291,0.5648193359375,0.7166748046875,0.996337890625,81.787109375,-84.8388671875,12.939453125
21667.853377,0.5648193359375,0.7166748046875,0.9688720703125,81.787109375,-84.8388671875,12.939453125
21667.853468666,0.5648193359375,0.7166748046875,0.9688720703125,81.787109375,-116.5771484375,12.939453125
21667.90974475,0.49755859375,0.7166748046875,0.9688720703125,81.787109375,-116.5771484375,12.939453125
21667.909994833,0.49755859375,0.7294921875,0.9688720703125,81.787109375,-116.5771484375,12.939453125
21667.91056175,0.49755859375,0.7294921875,1.029296875,81.787109375,-116.5771484375,12.939453125
21667.91079025,0.49755859375,0.7294921875,1.029296875,80.9326171875,-116.5771484375,12.939453125
21667.941993041,0.44140625,0.7294921875,1.029296875,80.9326171875,-116.5771484375,12.939453125
21667.942239416,0.44140625,0.6981201171875,1.029296875,80.9326171875,-116.5771484375,12.939453125
21667.942315916,0.44140625,0.6981201171875,0.9764404296875,80.9326171875,-116.5771484375,12.939453125
21667.957236416,0.44140625,0.6981201171875,0.9764404296875,80.9326171875,-131.65283203125,12.939453125
21667.971839375,0.3095703125,0.6981201171875,0.9764404296875,80.9326171875,-131.65283203125,12.939453125
21667.985524333,0.3095703125,0.660888671875,0.9764404296875,80.9326171875,-131.65283203125,12.939453125
21667.986479083,0.3095703125,0.660888671875,0.957275390625,80.9326171875,-131.65283203125,12.939453125
21667.986641708,0.3095703125,0.660888671875,0.957275390625,80.9326171875,-143.798828125,12.939453125
21667.986712458,0.3095703125,0.660888671875,0.957275390625,80.9326171875,-143.798828125,67.9931640625
21668.001860916,0.22802734375,0.660888671875,0.957275390625,80.9326171875,-143.798828125,67.9931640625
21668.018821291,0.22802734375,0.710205078125,0.957275390625,80.9326171875,-143.798828125,67.9931640625
21668.018875125,0.22802734375,0.710205078125,0.8914794921875,80.9326171875,-143.798828125,67.9931640625
21668.059810125,0.22802734375,0.710205078125,0.8914794921875,80.9326171875,-151.611328125,67.9931640625
21668.085048166,0.22802734375,0.710205078125,0.8914794921875,80.9326171875,-151.611328125,85.99853515625
21668.085095083,0.1197509765625,0.710205078125,0.8914794921875,80.9326171875,-151.611328125,85.99853515625
21668.085132625,0.1197509765625,0.4693603515625,0.8914794921875,80.9326171875,-151.611328125,85.99853515625
21668.08516825,0.1197509765625,0.4693603515625,0.8914794921875,80.9326171875,-154.4189453125,85.99853515625
21668.10464125,-0.1617431640625,0.4693603515625,0.8914794921875,80.9326171875,-154.4189453125,85.99853515625
21668.104755416,-0.1617431640625,0.10888671875,0.8914794921875,80.9326171875,-154.4189453125,85.99853515625
21668.119432875,-0.1617431640625,0.10888671875,0.471435546875,80.9326171875,-154.4189453125,85.99853515625
21668.119615666,-0.1617431640625,0.10888671875,0.471435546875,71.47216796875,-154.4189453125,85.99853515625
21668.120618333,-0.2501220703125,0.10888671875,0.471435546875,71.47216796875,-154.4189453125,85.99853515625
21668.120767583,-0.2501220703125,-0.0313720703125,0.471435546875,71.47216796875,-154.4189453125,85.99853515625
21668.135757416,-0.2501220703125,-0.0313720703125,0.471435546875,121.4599609375,-154.4189453125,85.99853515625
21668.164558208,-0.2501220703125,-0.0313720703125,0.471435546875,121.4599609375,-145.3857421875,85.99853515625
21668.164741666,-0.2501220703125,-0.0313720703125,0.471435546875,121.4599609375,-145.3857421875,73.66943359375
21668.1654585,-0.3529052734375,-0.0313720703125,0.471435546875,121.4599609375,-145.3857421875,73.66943359375
21668.1857195,-0.3529052734375,-0.6856689453125,0.471435546875,121.4599609375,-145.3857421875,73.66943359375
21668.185783083,-0.3529052734375,-0.6856689453125,0.471435546875,121.4599609375,-119.140625,73.66943359375
21668.185839416,-0.3529052734375,-0.6856689453125,0.471435546875,121.4599609375,-119.140625,31.31103515625
21668.194305666,-0.3603515625,-0.6856689453125,0.471435546875,121.4599609375,-119.140625,31.31103515625
21668.194457,-0.3603515625,-0.3524169921875,0.471435546875,121.4599609375,-119.140625,31.31103515625
21668.195488083,-0.3603515625,-0.3524169921875,-0.112060546875,121.4599609375,-119.140625,31.31103515625
21668.210418041,-0.3603515625,-0.3524169921875,-0.112060546875,121.4599609375,-85.3271484375,31.31103515625
21668.21053725,-0.3603515625,-0.3524169921875,-0.112060546875,121.4599609375,-85.3271484375,-2.01416015625
21668.239682583,-0.31298828125,-0.3524169921875,-0.112060546875,121.4599609375,-85.3271484375,-2.01416015625
21668.23990925,-0.31298828125,-0.26904296875,-0.112060546875,121.4599609375,-85.3271484375,-2.01416015625
21668.284891166,-0.31298828125,-0.26904296875,-0.089599609375,121.4599609375,-85.3271484375,-2.01416015625
21668.285162583,-0.31298828125,-0.26904296875,-0.089599609375,121.4599609375,-35.82763671875,-2.01416015625
21668.285954083,-0.31298828125,-0.26904296875,-0.089599609375,121.4599609375,-35.82763671875,-23.01025390625
21668.28614575,-0.2969970703125,-0.26904296875,-0.089599609375,121.4599609375,-35.82763671875,-23.01025390625
21668.302407416,-0.2969970703125,-0.26904296875,-0.0771484375,121.4599609375,-35.82763671875,-23.01025390625
21668.319310583,-0.2969970703125,-0.26904296875,-0.0771484375,-31.6162109375,-35.82763671875,-23.01025390625
21668.31937225,-0.2969970703125,-0.26904296875,-0.0771484375,-31.6162109375,-3.0517578125,-23.01025390625
21668.347245541,-0.3740234375,-0.26904296875,-0.0771484375,-31.6162109375,-3.0517578125,-23.01025390625
21668.352081791,-0.3740234375,0.037353515625,-0.0771484375,-31.6162109375,-3.0517578125,-23.01025390625
21668.352127833,-0.3740234375,0.037353515625,0.11376953125,-31.6162109375,-3.0517578125,-23.01025390625
21668.392530666,-0.3740234375,0.037353515625,0.11376953125,-31.6162109375,-3.0517578125,-47.119140625
21668.393020375,-0.3017578125,0.037353515625,0.11376953125,-31.6162109375,-3.0517578125,-47.119140625
21668.393132375,-0.3017578125,0.125244140625,0.11376953125,-31.6162109375,-3.0517578125,-47.119140625
21668.393235,-0.3017578125,0.125244140625,0.387939453125,-31.6162109375,-3.0517578125,-47.119140625
21668.419709666,-0.3017578125,0.125244140625,0.387939453125,-31.6162109375,-3.0517578125,-63.29345703125
21668.43723475,-0.3076171875,0.125244140625,0.387939453125,-31.6162109375,-3.0517578125,-63.29345703125
21668.437336083,-0.3076171875,0.21826171875,0.387939453125,-31.6162109375,-3.0517578125,-63.29345703125
21668.437424916,-0.3076171875,0.21826171875,0.5552978515625,-31.6162109375,-3.0517578125,-63.29345703125
21668.464839583,-0.3076171875,0.21826171875,0.5552978515625,-31.6162109375,112.9150390625,-63.29345703125
21668.465023166,-0.3076171875,0.21826171875,0.5552978515625,-31.6162109375,112.9150390625,-65.5517578125
21668.494914333,-0.1534423828125,0.21826171875,0.5552978515625,-31.6162109375,112.9150390625,-65.5517578125
21668.4951445,-0.1534423828125,0.37939453125,0.5552978515625,-31.6162109375,112.9150390625,-65.5517578125
21668.495410375,-0.1534423828125,0.37939453125,0.7747802734375,-31.6162109375,112.9150390625,-65.5517578125
21668.509927416,-0.044189453125,0.37939453125,0.7747802734375,-31.6162109375,112.9150390625,-65.5517578125
21668.525057208,-0.044189453125,0.5220947265625,0.7747802734375,-31.6162109375,112.9150390625,-65.5517578125
21668.540286333,-0.044189453125,0.5220947265625,0.8682861328125,-31.6162109375,112.9150390625,-65.5517578125
21668.54049875,-0.044189453125,0.5220947265625,0.8682861328125,-31.6162109375,112.9150390625,-67.19970703125
21668.570500583,-0.0982666015625,0.5220947265625,0.8682861328125,-31.6162109375,112.9150390625,-67.19970703125
21668.570715708,-0.0982666015625,0.5367431640625,0.8682861328125,-31.6162109375,112.9150390625,-67.19970703125
21668.572574041,-0.0982666015625,0.5367431640625,0.8682861328125,-31.6162109375,106.26220703125,-67.19970703125
21668.572755458,-0.0982666015625,0.5367431640625,0.8682861328125,-31.6162109375,106.26220703125,-59.75341796875
21668.586889291,0.0589599609375,0.5367431640625,0.8682861328125,-31.6162109375,106.26220703125,-59.75341796875
21668.586986041,0.0589599609375,0.495361328125,0.8682861328125,-31.6162109375,106.26220703125,-59.75341796875
21668.587058083,0.0589599609375,0.495361328125,0.9276123046875,-31.6162109375,106.26220703125,-59.75341796875
21668.603618416,0.0589599609375,0.495361328125,0.9276123046875,-31.6162109375,106.26220703125,-55.0537109375
21668.619795583,0.0010986328125,0.495361328125,0.9276123046875,-31.6162109375,106.26220703125,-55.0537109375
21668.660068291,0.0010986328125,0.6712646484375,0.9276123046875,-31.6162109375,106.26220703125,-55.0537109375
21668.676194875,0.0010986328125,0.6712646484375,1.0286865234375,-31.6162109375,106.26220703125,-55.0537109375
21668.676294166,0.0010986328125,0.6712646484375,1.0286865234375,-31.6162109375,78.369140625,-55.0537109375
21668.676392541,0.0010986328125,0.6712646484375,1.0286865234375,-31.6162109375,78.369140625,-74.52392578125
21668.70444775,0.0010986328125,0.7169189453125,1.0286865234375,-31.6162109375,78.369140625,-74.52392578125
21668.706603916,0.0010986328125,0.7169189453125,1.087890625,-31.6162109375,78.369140625,-74.52392578125
21668.706825625,0.0010986328125,0.7169189453125,1.087890625,-78.67431640625,78.369140625,-74.52392578125
21668.720210625,0.0010986328125,0.7169189453125,1.087890625,-78.67431640625,78.369140625,-71.2890625
21668.748566958,0.1715087890625,0.7169189453125,1.087890625,-78.67431640625,78.369140625,-71.2890625
21668.749642041,0.1715087890625,0.8251953125,1.087890625,-78.67431640625,78.369140625,-71.2890625
21668.780185333,0.1715087890625,0.8251953125,1.0086669921875,-78.67431640625,78.369140625,-71.2890625
21668.79602725,0.1715087890625,0.8251953125,1.0086669921875,-65.00244140625,78.369140625,-71.2890625
21668.796284916,0.291259765625,0.8251953125,1.0086669921875,-65.00244140625,78.369140625,-71.2890625
21668.824761,0.291259765625,0.77978515625,1.0086669921875,-65.00244140625,78.369140625,-71.2890625
21668.824947666,0.291259765625,0.77978515625,1.0086669921875,-40.6494140625,78.369140625,-71.2890625
21668.826216583,0.291259765625,0.77978515625,1.0086669921875,-40.6494140625,78.369140625,-45.95947265625
21668.841076041,0.2586669921875,0.77978515625,1.0086669921875,-40.6494140625,78.369140625,-45.95947265625
21668.856641416,0.2586669921875,0.7647705078125,1.0086669921875,-40.6494140625,78.369140625,-45.95947265625
21668.870891,0.2586669921875,0.7647705078125,0.9451904296875,-40.6494140625,78.369140625,-45.95947265625
21668.871142541,0.2586669921875,0.7647705078125,0.9451904296875,-40.6494140625,78.369140625,-36.865234375
21668.871254,0.369384765625,0.7647705078125,0.9451904296875,-40.6494140625,78.369140625,-36.865234375
21668.8713265,0.369384765625,0.6151123046875,0.9451904296875,-40.6494140625,78.369140625,-36.865234375
21668.885987875,0.369384765625,0.6151123046875,0.9451904296875,-40.6494140625,84.04541015625,-36.865234375
21668.886086375,0.369384765625,0.6151123046875,0.9451904296875,-40.6494140625,84.04541015625,-32.958984375
21668.915042875,0.509521484375,0.6151123046875,0.9451904296875,-40.6494140625,84.04541015625,-32.958984375
21668.915226541,0.509521484375,0.7586669921875,0.9451904296875,-40.6494140625,84.04541015625,-32.958984375
21668.929258583,0.509521484375,0.7586669921875,0.80126953125,-40.6494140625,84.04541015625,-32.958984375
21668.929421875,0.509521484375,0.7586669921875,0.80126953125,-40.6494140625,84.28955078125,-32.958984375
21668.930754583,0.509521484375,0.7586669921875,0.80126953125,-40.6494140625,84.28955078125,-33.69140625
21668.944420416,0.5595703125,0.7586669921875,0.80126953125,-40.6494140625,84.28955078125,-33.69140625
21668.944600958,0.5595703125,0.670654296875,0.80126953125,-40.6494140625,84.28955078125,-33.69140625
21668.945309458,0.5595703125,0.670654296875,0.6702880859375,-40.6494140625,84.28955078125,-33.69140625
21668.959832791,0.5595703125,0.670654296875,0.6702880859375,-40.6494140625,70.37353515625,-33.69140625
21668.9600245,0.5595703125,0.670654296875,0.6702880859375,-40.6494140625,70.37353515625,-23.8037109375
21668.990387333,0.669677734375,0.670654296875,0.6702880859375,-40.6494140625,70.37353515625,-23.8037109375
21669.019177125,0.669677734375,0.7193603515625,0.6702880859375,-40.6494140625,70.37353515625,-23.8037109375
21669.019383125,0.669677734375,0.7193603515625,0.7655029296875,-40.6494140625,70.37353515625,-23.8037109375
21669.020476,0.669677734375,0.7193603515625,0.7655029296875,-0.732421875,70.37353515625,-23.8037109375
21669.020667416,0.5986328125,0.7193603515625,0.7655029296875,-0.732421875,70.37353515625,-23.8037109375
21669.054080333,0.5986328125,0.7193603515625,0.6806640625,-0.732421875,70.37353515625,-23.8037109375
21669.054191791,0.5986328125,0.7193603515625,0.6806640625,-4.638671875,70.37353515625,-23.8037109375
21669.054256958,0.5986328125,0.7193603515625,0.6806640625,-4.638671875,31.18896484375,-23.8037109375
21669.079637083,0.618896484375,0.7193603515625,0.6806640625,-4.638671875,31.18896484375,-23.8037109375
21669.094526875,0.618896484375,0.7520751953125,0.6806640625,-4.638671875,31.18896484375,-23.8037109375
21669.094762416,0.618896484375,0.7520751953125,0.775146484375,-4.638671875,31.18896484375,-23.8037109375
21669.094878208,0.618896484375,0.7520751953125,0.775146484375,-4.638671875,16.66259765625,-23.8037109375
21669.095390666,0.618896484375,0.7520751953125,0.775146484375,-4.638671875,16.66259765625,-5.06591796875
NEW_REP,,,,,,
21669.119844875,0.54931640625,0.7520751953125,0.775146484375,-4.638671875,16.66259765625,-5.06591796875
21669.124279625,0.54931640625,0.7392578125,0.775146484375,-4.638671875,16.66259765625,-5.06591796875
21669.124458916,0.54931640625,0.7392578125,0.790283203125,-4.638671875,16.66259765625,-5.06591796875
21669.139418458,0.54931640625,0.7392578125,0.790283203125,-4.638671875,-2.44140625,-5.06591796875
21669.139585083,0.54931640625,0.7392578125,0.790283203125,-4.638671875,-2.44140625,9.521484375
21669.168825458,0.5736083984375,0.7392578125,0.790283203125,-4.638671875,-2.44140625,9.521484375
21669.199244833,0.5736083984375,0.6434326171875,0.790283203125,-4.638671875,-2.44140625,9.521484375
21669.199448416,0.5736083984375,0.6434326171875,0.825439453125,-4.638671875,-2.44140625,9.521484375
21669.200199125,0.552734375,0.6434326171875,0.825439453125,-4.638671875,-2.44140625,9.521484375
21669.200376541,0.552734375,0.6788330078125,0.825439453125,-4.638671875,-2.44140625,9.521484375
21669.229375791,0.552734375,0.6788330078125,0.825439453125,-4.638671875,-24.169921875,9.521484375
21669.229661375,0.552734375,0.6788330078125,0.825439453125,-4.638671875,-24.169921875,7.6904296875
21669.273674916,0.55615234375,0.6788330078125,0.825439453125,-4.638671875,-24.169921875,7.6904296875
21669.350619375,0.55615234375,0.7777099609375,0.825439453125,-4.638671875,-24.169921875,7.6904296875
21669.351209291,0.55615234375,0.7777099609375,1.00146484375,-4.638671875,-24.169921875,7.6904296875
21669.351614625,0.56982421875,0.7777099609375,1.00146484375,-4.638671875,-24.169921875,7.6904296875
21669.38011625,0.56982421875,0.7777099609375,1.0352783203125,-4.638671875,-24.169921875,7.6904296875
21669.380407333,0.56982421875,0.7777099609375,1.0352783203125,-4.638671875,-66.2841796875,7.6904296875
21669.381216166,0.56982421875,0.7777099609375,1.0352783203125,-4.638671875,-66.2841796875,25.2685546875
21669.381473541,0.484619140625,0.7777099609375,1.0352783203125,-4.638671875,-66.2841796875,25.2685546875
21669.403926,0.484619140625,0.7777099609375,1.16162109375,-4.638671875,-66.2841796875,25.2685546875
21669.404028916,0.484619140625,0.7777099609375,1.16162109375,73.486328125,-66.2841796875,25.2685546875
21669.404117958,0.484619140625,0.7777099609375,1.16162109375,73.486328125,-148.86474609375,25.2685546875
21669.409405958,0.456787109375,0.7777099609375,1.16162109375,73.486328125,-148.86474609375,25.2685546875
21669.409640416,0.456787109375,0.7437744140625,1.16162109375,73.486328125,-148.86474609375,25.2685546875
21669.409767083,0.456787109375,0.7437744140625,1.1551513671875,73.486328125,-148.86474609375,25.2685546875
21669.424466625,0.456787109375,0.7437744140625,1.1551513671875,73.486328125,-158.447265625,25.2685546875
21669.424678916,0.456787109375,0.7437744140625,1.1551513671875,73.486328125,-158.447265625,39.9169921875
21669.439336791,0.4151611328125,0.7437744140625,1.1551513671875,73.486328125,-158.447265625,39.9169921875
21669.4546725,0.4151611328125,0.79248046875,1.1551513671875,73.486328125,-158.447265625,39.9169921875
21669.454781875,0.4151611328125,0.79248046875,1.035400390625,73.486328125,-158.447265625,39.9169921875
21669.454990958,0.4151611328125,0.79248046875,1.035400390625,73.486328125,-162.17041015625,39.9169921875
21669.455403208,0.4151611328125,0.79248046875,1.035400390625,73.486328125,-162.17041015625,44.25048828125
21669.470545708,0.375244140625,0.79248046875,1.035400390625,73.486328125,-162.17041015625,44.25048828125
21669.470641458,0.375244140625,0.798095703125,1.035400390625,73.486328125,-162.17041015625,44.25048828125
21669.487103625,0.375244140625,0.798095703125,0.910888671875,73.486328125,-162.17041015625,44.25048828125
21669.487196041,0.375244140625,0.798095703125,0.910888671875,73.486328125,-159.24072265625,44.25048828125
21669.487280875,0.375244140625,0.798095703125,0.910888671875,73.486328125,-159.24072265625,46.08154296875
21669.5143805,0.360595703125,0.798095703125,0.910888671875,73.486328125,-159.24072265625,46.08154296875
21669.520266041,0.360595703125,0.7569580078125,0.910888671875,73.486328125,-159.24072265625,46.08154296875
21669.520387125,0.360595703125,0.7569580078125,0.759033203125,73.486328125,-159.24072265625,46.08154296875
21669.520460958,0.360595703125,0.7569580078125,0.759033203125,73.486328125,-155.8837890625,46.08154296875
21669.54443575,0.268310546875,0.7569580078125,0.759033203125,73.486328125,-155.8837890625,46.08154296875
21669.544615208,0.268310546875,0.670166015625,0.759033203125,73.486328125,-155.8837890625,46.08154296875
21669.545107916,0.268310546875,0.670166015625,0.66259765625,73.486328125,-155.8837890625,46.08154296875
21669.589122208,0.268310546875,0.670166015625,0.66259765625,79.16259765625,-155.8837890625,46.08154296875
21669.5893615,0.2119140625,0.670166015625,0.66259765625,79.16259765625,-155.8837890625,46.08154296875
21669.61997675,0.2119140625,0.585205078125,0.66259765625,79.16259765625,-155.8837890625,46.08154296875
21669.620054208,0.2119140625,0.585205078125,0.66259765625,73.73046875,-155.8837890625,46.08154296875
21669.620124,0.2119140625,0.585205078125,0.66259765625,73.73046875,-155.8837890625,57.0068359375
21669.694916583,-0.042724609375,0.585205078125,0.66259765625,73.73046875,-155.8837890625,57.0068359375
21669.695232208,-0.042724609375,0.2730712890625,0.66259765625,73.73046875,-155.8837890625,57.0068359375
21669.695605625,-0.042724609375,0.2730712890625,0.3673095703125,73.73046875,-155.8837890625,57.0068359375
21669.69592425,-0.042724609375,0.2730712890625,0.3673095703125,73.73046875,-137.14599609375,57.0068359375
21669.72061375,-0.30224609375,0.2730712890625,0.3673095703125,73.73046875,-137.14599609375,57.0068359375
21669.720707208,-0.30224609375,-0.025146484375,0.3673095703125,73.73046875,-137.14599609375,57.0068359375
21669.720800625,-0.30224609375,-0.025146484375,0.0240478515625,73.73046875,-137.14599609375,57.0068359375
21669.759219041,-0.30224609375,-0.025146484375,0.0240478515625,73.73046875,-99.91455078125,57.0068359375
21669.770553375,-0.30224609375,-0.025146484375,0.0240478515625,73.73046875,-99.91455078125,43.51806640625
21669.770705791,-0.3115234375,-0.025146484375,0.0240478515625,73.73046875,-99.91455078125,43.51806640625
21669.770791333,-0.3115234375,-0.0899658203125,0.0240478515625,73.73046875,-99.91455078125,43.51806640625
21669.787817416,-0.3115234375,-0.0899658203125,0.0240478515625,73.73046875,-29.1748046875,43.51806640625
21669.7879035,-0.3115234375,-0.0899658203125,0.0240478515625,73.73046875,-29.1748046875,-3.84521484375
21669.803921125,-0.3065185546875,-0.0899658203125,0.0240478515625,73.73046875,-29.1748046875,-3.84521484375
21669.80401925,-0.3065185546875,-0.03759765625,0.0240478515625,73.73046875,-29.1748046875,-3.84521484375
21669.814398958,-0.3065185546875,-0.03759765625,0.0323486328125,73.73046875,-29.1748046875,-3.84521484375
21669.829650083,-0.3192138671875,-0.03759765625,0.0323486328125,73.73046875,-29.1748046875,-3.84521484375
21669.829851208,-0.3192138671875,0.0426025390625,0.0323486328125,73.73046875,-29.1748046875,-3.84521484375
21669.874947,-0.3192138671875,0.0426025390625,0.1275634765625,73.73046875,-29.1748046875,-3.84521484375
21669.875424166,-0.3192138671875,0.0426025390625,0.1275634765625,73.73046875,39.61181640625,-3.84521484375
21669.8756145,-0.3192138671875,0.0426025390625,0.1275634765625,73.73046875,39.61181640625,-37.4755859375
21669.875854083,-0.3331298828125,0.0426025390625,0.1275634765625,73.73046875,39.61181640625,-37.4755859375
21669.904725291,-0.3331298828125,0.0426025390625,0.1275634765625,-33.75244140625,39.61181640625,-37.4755859375
21669.904830333,-0.3331298828125,0.0426025390625,0.1275634765625,-33.75244140625,71.22802734375,-37.4755859375
21669.905915083,-0.3331298828125,0.0426025390625,0.1275634765625,-33.75244140625,71.22802734375,-49.98779296875
21669.906063208,-0.2939453125,0.0426025390625,0.1275634765625,-33.75244140625,71.22802734375,-49.98779296875
21669.920582708,-0.2939453125,0.0426025390625,0.1275634765625,-42.1142578125,71.22802734375,-49.98779296875
21669.920659583,-0.2939453125,0.0426025390625,0.1275634765625,-42.1142578125,75.62255859375,-49.98779296875
21669.920730166,-0.2939453125,0.0426025390625,0.1275634765625,-42.1142578125,75.62255859375,-57.861328125
21669.980229833,-0.2769775390625,0.0426025390625,0.1275634765625,-42.1142578125,75.62255859375,-57.861328125
21669.980581,-0.2769775390625,0.40380859375,0.1275634765625,-42.1142578125,75.62255859375,-57.861328125
21669.980691083,-0.2769775390625,0.40380859375,0.6793212890625,-42.1142578125,75.62255859375,-57.861328125
21670.05454975,-0.2769775390625,0.40380859375,0.6793212890625,-42.1142578125,65.5517578125,-57.861328125
21670.087230125,-0.2967529296875,0.40380859375,0.6793212890625,-42.1142578125,65.5517578125,-57.861328125
21670.08731075,-0.2967529296875,0.494873046875,0.6793212890625,-42.1142578125,65.5517578125,-57.861328125
21670.087381291,-0.2967529296875,0.494873046875,0.8453369140625,-42.1142578125,65.5517578125,-57.861328125
21670.087450041,-0.2967529296875,0.494873046875,0.8453369140625,-42.1142578125,55.908203125,-57.861328125
21670.10363275,-0.13037109375,0.494873046875,0.8453369140625,-42.1142578125,55.908203125,-57.861328125
21670.103712583,-0.13037109375,0.5799560546875,0.8453369140625,-42.1142578125,55.908203125,-57.861328125
21670.103785125,-0.13037109375,0.5799560546875,0.890869140625,-42.1142578125,55.908203125,-57.861328125
21670.103855416,-0.13037109375,0.5799560546875,0.890869140625,-33.3251953125,55.908203125,-57.861328125
21670.130254541,-0.0645751953125,0.5799560546875,0.890869140625,-33.3251953125,55.908203125,-57.861328125
21670.13641925,-0.0645751953125,0.6558837890625,0.890869140625,-33.3251953125,55.908203125,-57.861328125
21670.136535541,-0.0645751953125,0.6558837890625,0.9625244140625,-33.3251953125,55.908203125,-57.861328125
21670.136607041,-0.0645751953125,0.6558837890625,0.9625244140625,-33.3251953125,67.81005859375,-57.861328125
21670.144622,0.014892578125,0.6558837890625,0.9625244140625,-33.3251953125,67.81005859375,-57.861328125
21670.144757125,0.014892578125,0.7071533203125,0.9625244140625,-33.3251953125,67.81005859375,-57.861328125
21670.204034791,0.014892578125,0.7071533203125,0.81982421875,-33.3251953125,67.81005859375,-57.861328125
21670.206169958,0.014892578125,0.7071533203125,0.81982421875,-33.3251953125,68.603515625,-57.861328125
21670.206468166,0.014892578125,0.7071533203125,0.81982421875,-33.3251953125,68.603515625,-46.5087890625
21670.20663175,0.0496826171875,0.7071533203125,0.81982421875,-33.3251953125,68.603515625,-46.5087890625
21670.22064425,0.0496826171875,0.7071533203125,0.81982421875,-52.734375,68.603515625,-46.5087890625
21670.220744,0.0496826171875,0.7071533203125,0.81982421875,-52.734375,62.255859375,-46.5087890625
21670.249962166,0.0496826171875,0.7071533203125,0.81982421875,-52.734375,62.255859375,-41.93115234375
21670.250155166,-0.0013427734375,0.7071533203125,0.81982421875,-52.734375,62.255859375,-41.93115234375
21670.250949125,-0.0013427734375,0.7802734375,0.81982421875,-52.734375,62.255859375,-41.93115234375
21670.251140666,-0.0013427734375,0.7802734375,0.90673828125,-52.734375,62.255859375,-41.93115234375
21670.280310833,-0.0013427734375,0.7802734375,0.90673828125,-52.734375,80.13916015625,-41.93115234375
21670.280563333,-0.0013427734375,0.7802734375,0.90673828125,-52.734375,80.13916015625,-34.912109375
21670.303793041,0.1932373046875,0.7802734375,0.90673828125,-52.734375,80.13916015625,-34.912109375
21670.303872666,0.1932373046875,0.575927734375,0.90673828125,-52.734375,80.13916015625,-34.912109375
21670.303943125,0.1932373046875,0.575927734375,0.718994140625,-52.734375,80.13916015625,-34.912109375
21670.310998166,0.1932373046875,0.575927734375,0.718994140625,-52.734375,80.13916015625,-39.73388671875
21670.324488416,0.2041015625,0.575927734375,0.718994140625,-52.734375,80.13916015625,-39.73388671875
21670.3246515,0.2041015625,0.814697265625,0.718994140625,-52.734375,80.13916015625,-39.73388671875
21670.340207291,0.2041015625,0.814697265625,0.8541259765625,-52.734375,80.13916015625,-39.73388671875
21670.354289458,0.2041015625,0.814697265625,0.8541259765625,-52.734375,81.23779296875,-39.73388671875
21670.354438333,0.2041015625,0.814697265625,0.8541259765625,-52.734375,81.23779296875,-38.330078125
21670.369985458,0.2530517578125,0.814697265625,0.8541259765625,-52.734375,81.23779296875,-38.330078125
21670.370069333,0.2530517578125,0.73193359375,0.8541259765625,-52.734375,81.23779296875,-38.330078125
21670.371152333,0.2530517578125,0.73193359375,0.8541259765625,-52.734375,81.11572265625,-38.330078125
21670.371291208,0.2530517578125,0.73193359375,0.8541259765625,-52.734375,81.11572265625,-29.78515625
21670.401043583,0.363525390625,0.73193359375,0.8541259765625,-52.734375,81.11572265625,-29.78515625
21670.415526916,0.363525390625,0.64697265625,0.8541259765625,-52.734375,81.11572265625,-29.78515625
21670.415796625,0.363525390625,0.64697265625,0.7451171875,-52.734375,81.11572265625,-29.78515625
21670.415892,0.363525390625,0.64697265625,0.7451171875,-15.93017578125,81.11572265625,-29.78515625
21670.417362,0.3900146484375,0.64697265625,0.7451171875,-15.93017578125,81.11572265625,-29.78515625
21670.436659916,0.3900146484375,0.64697265625,0.7789306640625,-15.93017578125,81.11572265625,-29.78515625
21670.460182791,0.3900146484375,0.64697265625,0.7789306640625,-24.47509765625,81.11572265625,-29.78515625
21670.460370041,0.3900146484375,0.64697265625,0.7789306640625,-24.47509765625,72.1435546875,-29.78515625
21670.460461375,0.3138427734375,0.64697265625,0.7789306640625,-24.47509765625,72.1435546875,-29.78515625
21670.46067575,0.3138427734375,0.7271728515625,0.7789306640625,-24.47509765625,72.1435546875,-29.78515625
21670.474514125,0.3138427734375,0.7271728515625,0.7789306640625,-24.47509765625,66.10107421875,-29.78515625
21670.4902735,0.3138427734375,0.7271728515625,0.7789306640625,-24.47509765625,66.10107421875,-25.2685546875
21670.519369708,0.3692626953125,0.7271728515625,0.7789306640625,-24.47509765625,66.10107421875,-25.2685546875
21670.519577666,0.3692626953125,0.6669921875,0.7789306640625,-24.47509765625,66.10107421875,-25.2685546875
21670.549691625,0.3692626953125,0.6669921875,0.712646484375,-24.47509765625,66.10107421875,-25.2685546875
21670.54996025,0.3692626953125,0.6669921875,0.712646484375,-24.47509765625,72.265625,-25.2685546875
21670.55525375,0.3692626953125,0.6669921875,0.712646484375,-24.47509765625,72.265625,-18.6767578125
21670.579745666,0.4808349609375,0.6669921875,0.712646484375,-24.47509765625,72.265625,-18.6767578125
21670.580050208,0.4808349609375,0.6943359375,0.712646484375,-24.47509765625,72.265625,-18.6767578125
21670.580209125,0.4808349609375,0.6943359375,0.739990234375,-24.47509765625,72.265625,-18.6767578125
21670.594498125,0.4808349609375,0.6943359375,0.739990234375,-24.47509765625,72.265625,-20.751953125
21670.619460416,0.5194091796875,0.6943359375,0.739990234375,-24.47509765625,72.265625,-20.751953125
21670.619541125,0.5194091796875,0.6734619140625,0.739990234375,-24.47509765625,72.265625,-20.751953125
21670.626066083,0.5194091796875,0.6734619140625,0.74267578125,-24.47509765625,72.265625,-20.751953125
21670.626322875,0.5194091796875,0.6734619140625,0.74267578125,-24.47509765625,46.38671875,-20.751953125
21670.62645,0.5194091796875,0.6734619140625,0.74267578125,-24.47509765625,46.38671875,-10.1318359375
21670.654253875,0.5303955078125,0.6734619140625,0.74267578125,-24.47509765625,46.38671875,-10.1318359375
21670.654414125,0.5303955078125,0.685302734375,0.74267578125,-24.47509765625,46.38671875,-10.1318359375
21670.65515025,0.5303955078125,0.685302734375,0.70361328125,-24.47509765625,46.38671875,-10.1318359375
21670.655322708,0.5303955078125,0.685302734375,0.70361328125,-24.47509765625,35.46142578125,-10.1318359375
21670.669524291,0.5009765625,0.685302734375,0.70361328125,-24.47509765625,35.46142578125,-10.1318359375
21670.669810416,0.5009765625,0.6734619140625,0.70361328125,-24.47509765625,35.46142578125,-10.1318359375
21670.670042458,0.5009765625,0.6734619140625,0.700927734375,-24.47509765625,35.46142578125,-10.1318359375
21670.686143166,0.5009765625,0.6734619140625,0.700927734375,-24.47509765625,24.658203125,-10.1318359375
21670.686239583,0.5009765625,0.6734619140625,0.700927734375,-24.47509765625,24.658203125,-8.7890625
21670.719625958,0.5394287109375,0.6734619140625,0.700927734375,-24.47509765625,24.658203125,-8.7890625
21670.719694125,0.5394287109375,0.7626953125,0.700927734375,-24.47509765625,24.658203125,-8.7890625
21670.719754166,0.5394287109375,0.7626953125,0.770263671875,-24.47509765625,24.658203125,-8.7890625
21670.719814083,0.5394287109375,0.7626953125,0.770263671875,-4.8828125,24.658203125,-8.7890625
NEW_REP,,,,,,
21670.758951333,0.5543212890625,0.7626953125,0.770263671875,-4.8828125,24.658203125,-8.7890625
21670.762596875,0.5543212890625,0.721435546875,0.770263671875,-4.8828125,24.658203125,-8.7890625
21670.805171458,0.5543212890625,0.721435546875,0.7978515625,-4.8828125,24.658203125,-8.7890625
21670.80544325,0.5543212890625,0.721435546875,0.7978515625,-4.8828125,6.9580078125,-8.7890625
21670.805531,0.51171875,0.721435546875,0.7978515625,-4.8828125,6.9580078125,-8.7890625
21670.882047,0.51171875,0.721435546875,0.935302734375,-4.8828125,6.9580078125,-8.7890625
21670.896834333,0.51171875,0.721435546875,0.935302734375,21.66748046875,6.9580078125,-8.7890625
21670.896943583,0.51171875,0.721435546875,0.935302734375,21.66748046875,-13.73291015625,-8.7890625
21670.920806958,0.4520263671875,0.721435546875,0.935302734375,21.66748046875,-13.73291015625,-8.7890625
21670.9209175,0.4520263671875,0.721435546875,1.2738037109375,21.66748046875,-13.73291015625,-8.7890625
21670.921008041,0.4520263671875,0.721435546875,1.2738037109375,21.66748046875,-67.138671875,-8.7890625
21670.921106333,0.4520263671875,0.721435546875,1.2738037109375,21.66748046875,-67.138671875,14.16015625
21670.925232875,0.6112060546875,0.721435546875,1.2738037109375,21.66748046875,-67.138671875,14.16015625
21670.940413833,0.6112060546875,0.8421630859375,1.2738037109375,21.66748046875,-67.138671875,14.16015625
21670.94074575,0.6112060546875,0.8421630859375,1.187744140625,21.66748046875,-67.138671875,14.16015625
21670.940884583,0.6112060546875,0.8421630859375,1.187744140625,21.66748046875,-121.826171875,14.16015625
21670.940972166,0.6112060546875,0.8421630859375,1.187744140625,21.66748046875,-121.826171875,41.50390625
21670.954502583,0.6142578125,0.8421630859375,1.187744140625,21.66748046875,-121.826171875,41.50390625
21670.954706875,0.6142578125,0.8958740234375,1.187744140625,21.66748046875,-121.826171875,41.50390625
21670.955756625,0.6142578125,0.8958740234375,1.02783203125,21.66748046875,-121.826171875,41.50390625
21670.970466166,0.6142578125,0.8958740234375,1.02783203125,21.66748046875,-140.2587890625,41.50390625
21670.9705565,0.6142578125,0.8958740234375,1.02783203125,21.66748046875,-140.2587890625,52.55126953125
21671.031666541,0.5885009765625,0.8958740234375,1.02783203125,21.66748046875,-140.2587890625,52.55126953125
21671.0384615,0.5885009765625,0.9112548828125,1.02783203125,21.66748046875,-140.2587890625,52.55126953125
21671.038556458,0.5885009765625,0.9112548828125,0.9266357421875,21.66748046875,-140.2587890625,52.55126953125
21671.038703375,0.5885009765625,0.9112548828125,0.9266357421875,56.0302734375,-140.2587890625,52.55126953125
21671.044542291,0.5223388671875,0.9112548828125,0.9266357421875,56.0302734375,-140.2587890625,52.55126953125
21671.044869625,0.5223388671875,0.8602294921875,0.9266357421875,56.0302734375,-140.2587890625,52.55126953125
21671.045033625,0.5223388671875,0.8602294921875,0.8902587890625,56.0302734375,-140.2587890625,52.55126953125
21671.059783125,0.5223388671875,0.8602294921875,0.8902587890625,56.0302734375,-158.935546875,52.55126953125
21671.059992833,0.5223388671875,0.8602294921875,0.8902587890625,56.0302734375,-158.935546875,77.08740234375
21671.074585458,0.3538818359375,0.8602294921875,0.8902587890625,56.0302734375,-158.935546875,77.08740234375
21671.104552083,0.3538818359375,0.7119140625,0.8902587890625,56.0302734375,-158.935546875,77.08740234375
21671.104791833,0.3538818359375,0.7119140625,0.7413330078125,56.0302734375,-158.935546875,77.08740234375
21671.105392375,0.3538818359375,0.7119140625,0.7413330078125,56.0302734375,-162.109375,77.08740234375
21671.105645833,0.3538818359375,0.7119140625,0.7413330078125,56.0302734375,-162.109375,90.27099609375
21671.179831416,0.3538818359375,0.73388671875,0.7413330078125,56.0302734375,-162.109375,90.27099609375
21671.180033125,0.3538818359375,0.73388671875,0.7041015625,56.0302734375,-162.109375,90.27099609375
21671.180100166,0.3538818359375,0.73388671875,0.7041015625,39.36767578125,-162.109375,90.27099609375
21671.180376375,0.3538818359375,0.73388671875,0.7041015625,39.36767578125,-162.109375,97.35107421875
21671.209228625,0.3538818359375,0.4559326171875,0.7041015625,39.36767578125,-162.109375,97.35107421875
21671.224751208,0.3538818359375,0.4559326171875,0.55859375,39.36767578125,-162.109375,97.35107421875
21671.239549541,0.3538818359375,0.4559326171875,0.55859375,65.12451171875,-162.109375,97.35107421875
21671.23979975,0.3538818359375,0.4559326171875,0.55859375,65.12451171875,-162.109375,100.4638671875
21671.270240666,-0.279052734375,0.4559326171875,0.55859375,65.12451171875,-162.109375,100.4638671875
21671.270333291,-0.279052734375,0.237548828125,0.55859375,65.12451171875,-162.109375,100.4638671875
21671.270406875,-0.279052734375,0.237548828125,0.396728515625,65.12451171875,-162.109375,100.4638671875
21671.286830625,-0.325927734375,0.237548828125,0.396728515625,65.12451171875,-162.109375,100.4638671875
21671.30334225,-0.325927734375,0.01904296875,0.396728515625,65.12451171875,-162.109375,100.4638671875
21671.303428958,-0.325927734375,0.01904296875,0.295654296875,65.12451171875,-162.109375,100.4638671875
21671.30350475,-0.325927734375,0.01904296875,0.295654296875,60.72998046875,-162.109375,100.4638671875
21671.303575083,-0.3125,0.01904296875,0.295654296875,60.72998046875,-162.109375,100.4638671875
21671.319910291,-0.3125,0.01904296875,0.245361328125,60.72998046875,-162.109375,100.4638671875
21671.319990166,-0.3125,0.01904296875,0.245361328125,35.94970703125,-162.109375,100.4638671875
21671.320062583,-0.3125,0.01904296875,0.245361328125,35.94970703125,-61.82861328125,100.4638671875
21671.344317541,-0.3740234375,0.01904296875,0.245361328125,35.94970703125,-61.82861328125,100.4638671875
21671.344475166,-0.3740234375,0.0577392578125,0.245361328125,35.94970703125,-61.82861328125,100.4638671875
21671.359500083,-0.3740234375,0.0577392578125,0.1654052734375,35.94970703125,-61.82861328125,100.4638671875
21671.359643708,-0.3740234375,0.0577392578125,0.1654052734375,63.41552734375,-61.82861328125,100.4638671875
21671.374446333,-0.4232177734375,0.0577392578125,0.1654052734375,63.41552734375,-61.82861328125,100.4638671875
21671.374589875,-0.4232177734375,-0.07958984375,0.1654052734375,63.41552734375,-61.82861328125,100.4638671875
21671.389583041,-0.4232177734375,-0.07958984375,0.1156005859375,63.41552734375,-61.82861328125,100.4638671875
21671.389744833,-0.4232177734375,-0.07958984375,0.1156005859375,63.41552734375,-61.82861328125,26.4892578125
21671.419271791,-0.4068603515625,-0.07958984375,0.1156005859375,63.41552734375,-61.82861328125,26.4892578125
21671.419418916,-0.4068603515625,-0.0328369140625,0.1156005859375,63.41552734375,-61.82861328125,26.4892578125
21671.495869666,-0.4068603515625,-0.0328369140625,0.150634765625,63.41552734375,-61.82861328125,26.4892578125
21671.496480458,-0.4068603515625,-0.0328369140625,0.150634765625,63.41552734375,20.81298828125,26.4892578125
21671.497024083,-0.4068603515625,-0.0328369140625,0.150634765625,63.41552734375,20.81298828125,13.85498046875
21671.519779416,-0.384765625,-0.0328369140625,0.150634765625,63.41552734375,20.81298828125,13.85498046875
21671.520095708,-0.384765625,-0.0328369140625,0.150634765625,63.41552734375,43.9453125,13.85498046875
21671.520190083,-0.384765625,-0.0328369140625,0.150634765625,63.41552734375,43.9453125,-1.03759765625
21671.538994708,-0.435302734375,-0.0328369140625,0.150634765625,63.41552734375,43.9453125,-1.03759765625
21671.539160166,-0.435302734375,0.0633544921875,0.150634765625,63.41552734375,43.9453125,-1.03759765625
21671.554328583,-0.435302734375,0.0633544921875,0.556884765625,63.41552734375,43.9453125,-1.03759765625
21671.615039708,-0.435302734375,0.0633544921875,0.556884765625,-23.49853515625,43.9453125,-1.03759765625
21671.615184083,-0.3958740234375,0.0633544921875,0.556884765625,-23.49853515625,43.9453125,-1.03759765625
21671.644460208,-0.3958740234375,0.0693359375,0.556884765625,-23.49853515625,43.9453125,-1.03759765625
21671.644660916,-0.3958740234375,0.0693359375,0.556884765625,-31.67724609375,43.9453125,-1.03759765625
21671.645569541,-0.3958740234375,0.0693359375,0.556884765625,-31.67724609375,43.9453125,-29.296875
21671.645744,-0.3365478515625,0.0693359375,0.556884765625,-31.67724609375,43.9453125,-29.296875
21671.674697416,-0.3365478515625,0.0693359375,0.556884765625,-47.9736328125,43.9453125,-29.296875
21671.689452916,-0.3365478515625,0.0693359375,0.556884765625,-47.9736328125,72.75390625,-29.296875
21671.719070625,-0.3365478515625,0.0693359375,0.556884765625,-47.9736328125,72.75390625,-38.4521484375
21671.719282416,-0.248046875,0.0693359375,0.556884765625,-47.9736328125,72.75390625,-38.4521484375
21671.750194875,-0.248046875,0.0693359375,0.556884765625,-42.96875,72.75390625,-38.4521484375
21671.750400208,-0.248046875,0.0693359375,0.556884765625,-42.96875,72.75390625,-39.12353515625
21671.751696791,-0.3145751953125,0.0693359375,0.556884765625,-42.96875,72.75390625,-39.12353515625
21671.779991916,-0.3145751953125,0.4942626953125,0.556884765625,-42.96875,72.75390625,-39.12353515625
21671.780250916,-0.3145751953125,0.4942626953125,0.556884765625,-42.96875,72.1435546875,-39.12353515625
21671.780350166,-0.3145751953125,0.4942626953125,0.556884765625,-42.96875,72.1435546875,-39.61181640625
21671.809638333,-0.3145751953125,0.4249267578125,0.556884765625,-42.96875,72.1435546875,-39.61181640625
21671.810312208,-0.3145751953125,0.4249267578125,0.8895263671875,-42.96875,72.1435546875,-39.61181640625
21671.810496041,-0.3145751953125,0.4249267578125,0.8895263671875,-61.46240234375,72.1435546875,-39.61181640625
21671.836770875,-0.3145751953125,0.4249267578125,0.8895263671875,-61.46240234375,72.1435546875,-45.5322265625
21671.856234958,0.02685546875,0.4249267578125,0.8895263671875,-61.46240234375,72.1435546875,-45.5322265625
21671.85645025,0.02685546875,0.427490234375,0.8895263671875,-61.46240234375,72.1435546875,-45.5322265625
21671.8565225,0.02685546875,0.427490234375,0.771728515625,-61.46240234375,72.1435546875,-45.5322265625
21671.858395166,0.02685546875,0.427490234375,0.771728515625,-61.46240234375,73.6083984375,-45.5322265625
21671.869834208,0.0284423828125,0.427490234375,0.771728515625,-61.46240234375,73.6083984375,-45.5322265625
21671.869909,0.0284423828125,0.5137939453125,0.771728515625,-61.46240234375,73.6083984375,-45.5322265625
21671.869988666,0.0284423828125,0.5137939453125,0.830810546875,-61.46240234375,73.6083984375,-45.5322265625
21671.886584625,0.0284423828125,0.5137939453125,0.830810546875,-61.46240234375,72.1435546875,-45.5322265625
21671.886662708,0.0284423828125,0.5137939453125,0.830810546875,-61.46240234375,72.1435546875,-44.98291015625
21671.903375916,0.006103515625,0.5137939453125,0.830810546875,-61.46240234375,72.1435546875,-44.98291015625
21671.903454375,0.006103515625,0.5830078125,0.830810546875,-61.46240234375,72.1435546875,-44.98291015625
21671.920427625,0.006103515625,0.5830078125,0.9346923828125,-61.46240234375,72.1435546875,-44.98291015625
21671.92050425,0.006103515625,0.5830078125,0.9346923828125,-61.46240234375,82.8857421875,-44.98291015625
21671.920574958,0.006103515625,0.5830078125,0.9346923828125,-61.46240234375,82.8857421875,-40.58837890625
21671.930369041,0.1610107421875,0.5830078125,0.9346923828125,-61.46240234375,82.8857421875,-40.58837890625
21671.93063775,0.1610107421875,0.5543212890625,0.9346923828125,-61.46240234375,82.8857421875,-40.58837890625
21671.936645833,0.1610107421875,0.5543212890625,0.791259765625,-61.46240234375,82.8857421875,-40.58837890625
21671.946148458,0.1610107421875,0.5543212890625,0.791259765625,-61.46240234375,85.8154296875,-40.58837890625
21671.946327583,0.1610107421875,0.5543212890625,0.791259765625,-61.46240234375,85.8154296875,-33.14208984375
21671.960325041,0.1815185546875,0.5543212890625,0.791259765625,-61.46240234375,85.8154296875,-33.14208984375
21671.960500583,0.1815185546875,0.4986572265625,0.791259765625,-61.46240234375,85.8154296875,-33.14208984375
21671.961871125,0.1815185546875,0.4986572265625,0.7889404296875,-61.46240234375,85.8154296875,-33.14208984375
21672.004589208,0.1815185546875,0.4986572265625,0.7889404296875,-61.46240234375,89.9658203125,-33.14208984375
21672.004845333,0.1815185546875,0.4986572265625,0.7889404296875,-61.46240234375,89.9658203125,-37.29248046875
21672.00599525,0.154541015625,0.4986572265625,0.7889404296875,-61.46240234375,89.9658203125,-37.29248046875
21672.006210458,0.154541015625,0.4986572265625,0.9105224609375,-61.46240234375,89.9658203125,-37.29248046875
21672.020454833,0.154541015625,0.4986572265625,0.9105224609375,-61.46240234375,99.18212890625,-37.29248046875
21672.020568541,0.154541015625,0.4986572265625,0.9105224609375,-61.46240234375,99.18212890625,-32.89794921875
21672.049588,0.3525390625,0.4986572265625,0.9105224609375,-61.46240234375,99.18212890625,-32.89794921875
21672.049832791,0.3525390625,0.5029296875,0.9105224609375,-61.46240234375,99.18212890625,-32.89794921875
21672.050794541,0.3525390625,0.5029296875,0.9063720703125,-61.46240234375,99.18212890625,-32.89794921875
21672.080196458,0.3525390625,0.5029296875,0.9063720703125,-61.46240234375,99.42626953125,-32.89794921875
21672.080427083,0.3525390625,0.5029296875,0.9063720703125,-61.46240234375,99.42626953125,-33.0810546875
21672.103801291,0.3857421875,0.5029296875,0.9063720703125,-61.46240234375,99.42626953125,-33.0810546875
21672.103883125,0.3857421875,0.5306396484375,0.9063720703125,-61.46240234375,99.42626953125,-33.0810546875
21672.103955166,0.3857421875,0.5306396484375,0.9169921875,-61.46240234375,99.42626953125,-33.0810546875
21672.109384666,0.3857421875,0.5306396484375,0.9169921875,-61.46240234375,99.42626953125,-36.56005859375
21672.154201708,0.51513671875,0.5306396484375,0.9169921875,-61.46240234375,99.42626953125,-36.56005859375
21672.15444725,0.51513671875,0.5704345703125,0.9169921875,-61.46240234375,99.42626953125,-36.56005859375
21672.184745,0.51513671875,0.5704345703125,0.9749755859375,-61.46240234375,99.42626953125,-36.56005859375
21672.185129666,0.51513671875,0.5704345703125,0.9749755859375,-61.46240234375,71.044921875,-36.56005859375
21672.185575416,0.5113525390625,0.5704345703125,0.9749755859375,-61.46240234375,71.044921875,-36.56005859375
21672.185859208,0.5113525390625,0.571533203125,0.9749755859375,-61.46240234375,71.044921875,-36.56005859375
21672.204057708,0.5113525390625,0.571533203125,0.9749755859375,-22.94921875,71.044921875,-36.56005859375
21672.204156041,0.5113525390625,0.571533203125,0.9749755859375,-22.94921875,52.490234375,-36.56005859375
21672.21457525,0.5113525390625,0.571533203125,0.9749755859375,-22.94921875,52.490234375,-28.99169921875
21672.244640541,0.5264892578125,0.571533203125,0.9749755859375,-22.94921875,52.490234375,-28.99169921875
21672.244863166,0.5264892578125,0.6312255859375,0.9749755859375,-22.94921875,52.490234375,-28.99169921875
21672.245395,0.5264892578125,0.6312255859375,0.933837890625,-22.94921875,52.490234375,-28.99169921875
21672.245675416,0.5264892578125,0.6312255859375,0.933837890625,-22.94921875,44.3115234375,-28.99169921875
21672.274288041,0.52587890625,0.6312255859375,0.933837890625,-22.94921875,44.3115234375,-28.99169921875
21672.275955916,0.52587890625,0.5078125,0.933837890625,-22.94921875,44.3115234375,-28.99169921875
21672.276237458,0.52587890625,0.5078125,0.763427734375,-22.94921875,44.3115234375,-28.99169921875
21672.276334375,0.52587890625,0.5078125,0.763427734375,-0.79345703125,44.3115234375,-28.99169921875
21672.289890958,0.5535888671875,0.5078125,0.763427734375,-0.79345703125,44.3115234375,-28.99169921875
21672.290104833,0.5535888671875,0.5509033203125,0.763427734375,-0.79345703125,44.3115234375,-28.99169921875
21672.29019675,0.5535888671875,0.5509033203125,0.716796875,-0.79345703125,44.3115234375,-28.99169921875
21672.304347708,0.5535888671875,0.5509033203125,0.716796875,-0.79345703125,28.38134765625,-28.99169921875
21672.304485875,0.5535888671875,0.5509033203125,0.716796875,-0.79345703125,28.38134765625,-7.9345703125
21672.349938541,0.5606689453125,0.5509033203125,0.716796875,-0.79345703125,28.38134765625,-7.9345703125
21672.350137625,0.5606689453125,0.6318359375,0.716796875,-0.79345703125,28.38134765625,-7.9345703125
21672.351061041,0.5606689453125,0.6318359375,0.7171630859375,-0.79345703125,28.38134765625,-7.9345703125
21672.35131725,0.5606689453125,0.6318359375,0.7171630859375,-14.58740234375,28.38134765625,-7.9345703125
21672.379547791,0.5325927734375,0.6318359375,0.7171630859375,-14.58740234375,28.38134765625,-7.9345703125
21672.379775541,0.5325927734375,0.5762939453125,0.7171630859375,-14.58740234375,28.38134765625,-7.9345703125
21672.3798585,0.5325927734375,0.5762939453125,0.66845703125,-14.58740234375,28.38134765625,-7.9345703125
21672.409338916,0.5325927734375,0.5762939453125,0.66845703125,-14.58740234375,25.146484375,-7.9345703125
21672.409419833,0.5325927734375,0.5762939453125,0.66845703125,-14.58740234375,25.146484375,2.13623046875
21672.439190708,0.5823974609375,0.5762939453125,0.66845703125,-14.58740234375,25.146484375,2.13623046875
21672.440327125,0.5823974609375,0.520751953125,0.66845703125,-14.58740234375,25.146484375,2.13623046875
21672.4835415,0.5823974609375,0.520751953125,0.6282958984375,-14.58740234375,25.146484375,2.13623046875
21672.485241458,0.638916015625,0.520751953125,0.6282958984375,-14.58740234375,25.146484375,2.13623046875
21672.499375625,0.638916015625,0.5572509765625,0.6282958984375,-14.58740234375,25.146484375,2.13623046875
21672.503433583,0.638916015625,0.5572509765625,0.69921875,-14.58740234375,25.146484375,2.13623046875
21672.503551208,0.638916015625,0.5572509765625,0.69921875,-14.58740234375,25.146484375,5.31005859375
NEW_REP,,,,,,
21672.520348833,0.56982421875,0.5572509765625,0.69921875,-14.58740234375,25.146484375,5.31005859375
21672.52042825,0.56982421875,0.5159912109375,0.69921875,-14.58740234375,25.146484375,5.31005859375
21672.520497125,0.56982421875,0.5159912109375,0.880859375,-14.58740234375,25.146484375,5.31005859375
21672.529640708,0.56982421875,0.5159912109375,0.880859375,-14.58740234375,-9.33837890625,5.31005859375
21672.529830083,0.56982421875,0.5159912109375,0.880859375,-14.58740234375,-9.33837890625,4.5166015625
21672.559330333,0.5421142578125,0.5159912109375,0.880859375,-14.58740234375,-9.33837890625,4.5166015625
21672.560789208,0.5421142578125,0.483642578125,0.880859375,-14.58740234375,-9.33837890625,4.5166015625
21672.560965333,0.5421142578125,0.483642578125,0.939697265625,-14.58740234375,-9.33837890625,4.5166015625
21672.574916583,0.5421142578125,0.483642578125,0.939697265625,-14.58740234375,-22.88818359375,4.5166015625
21672.575016958,0.5421142578125,0.483642578125,0.939697265625,-14.58740234375,-22.88818359375,3.72314453125
21672.603439375,0.5599365234375,0.483642578125,0.939697265625,-14.58740234375,-22.88818359375,3.72314453125
21672.620409291,0.5599365234375,0.5245361328125,0.939697265625,-14.58740234375,-22.88818359375,3.72314453125
21672.620502166,0.5599365234375,0.5245361328125,1.0689697265625,-14.58740234375,-22.88818359375,3.72314453125
21672.620577208,0.5599365234375,0.5245361328125,1.0689697265625,33.5693359375,-22.88818359375,3.72314453125
21672.620719291,0.582763671875,0.5245361328125,1.0689697265625,33.5693359375,-22.88818359375,3.72314453125
21672.695217916,0.582763671875,0.5245361328125,1.07373046875,33.5693359375,-22.88818359375,3.72314453125
21672.69555675,0.582763671875,0.5245361328125,1.07373046875,41.44287109375,-22.88818359375,3.72314453125
21672.720707166,0.582763671875,0.5245361328125,1.07373046875,41.44287109375,-49.01123046875,3.72314453125
21672.720800666,0.6019287109375,0.5245361328125,1.07373046875,41.44287109375,-49.01123046875,3.72314453125
21672.720881,0.6019287109375,0.5245361328125,1.0428466796875,41.44287109375,-49.01123046875,3.72314453125
21672.720950708,0.6019287109375,0.5245361328125,1.0428466796875,48.40087890625,-49.01123046875,3.72314453125
21672.738456791,0.6019287109375,0.5245361328125,1.0428466796875,48.40087890625,-49.01123046875,8.9111328125
21672.755022666,0.5460205078125,0.5245361328125,1.0428466796875,48.40087890625,-49.01123046875,8.9111328125
21672.755172791,0.5460205078125,0.5928955078125,1.0428466796875,48.40087890625,-49.01123046875,8.9111328125
21672.771038625,0.5460205078125,0.5928955078125,0.9207763671875,48.40087890625,-49.01123046875,8.9111328125
21672.771199875,0.5460205078125,0.5928955078125,0.9207763671875,48.40087890625,-49.01123046875,19.4091796875
21672.799767666,0.493896484375,0.5928955078125,0.9207763671875,48.40087890625,-49.01123046875,19.4091796875
21672.800007791,0.493896484375,0.5821533203125,0.9207763671875,48.40087890625,-49.01123046875,19.4091796875
21672.800133833,0.493896484375,0.5821533203125,0.8599853515625,48.40087890625,-49.01123046875,19.4091796875
21672.814656083,0.493896484375,0.5821533203125,0.8599853515625,48.40087890625,-99.79248046875,19.4091796875
21672.814863541,0.493896484375,0.5821533203125,0.8599853515625,48.40087890625,-99.79248046875,24.658203125
21672.843758833,0.4088134765625,0.5821533203125,0.8599853515625,48.40087890625,-99.79248046875,24.658203125
21672.87457125,0.4088134765625,0.6070556640625,0.8599853515625,48.40087890625,-99.79248046875,24.658203125
21672.874778875,0.4088134765625,0.6070556640625,0.899658203125,48.40087890625,-99.79248046875,24.658203125
21672.875149666,0.4088134765625,0.6070556640625,0.899658203125,48.40087890625,-99.18212890625,24.658203125
21672.890230583,0.34228515625,0.6070556640625,0.899658203125,48.40087890625,-99.18212890625,24.658203125
21672.89045825,0.34228515625,0.5595703125,0.899658203125,48.40087890625,-99.18212890625,24.658203125
21672.890534666,0.34228515625,0.5595703125,0.8521728515625,48.40087890625,-99.18212890625,24.658203125
21672.919028458,0.2752685546875,0.5595703125,0.8521728515625,48.40087890625,-99.18212890625,24.658203125
21672.919224041,0.2752685546875,0.5516357421875,0.8521728515625,48.40087890625,-99.18212890625,24.658203125
21672.949864375,0.2752685546875,0.5516357421875,0.830078125,48.40087890625,-99.18212890625,24.658203125
21672.950125666,0.2752685546875,0.5516357421875,0.830078125,32.53173828125,-99.18212890625,24.658203125
21672.970002625,0.2752685546875,0.5516357421875,0.830078125,32.53173828125,-94.482421875,24.658203125
21672.970082791,0.2752685546875,0.5516357421875,0.830078125,32.53173828125,-94.482421875,50.96435546875
21672.979554916,0.2752685546875,0.5008544921875,0.830078125,32.53173828125,-94.482421875,50.96435546875
21672.9797315,0.2752685546875,0.5008544921875,0.8033447265625,32.53173828125,-94.482421875,50.96435546875
21672.994589125,0.2752685546875,0.5008544921875,0.8033447265625,36.0107421875,-94.482421875,50.96435546875
21672.994739583,0.2752685546875,0.5008544921875,0.8033447265625,36.0107421875,-94.482421875,55.0537109375
21673.040294291,0.0498046875,0.5008544921875,0.8033447265625,36.0107421875,-94.482421875,55.0537109375
21673.040481791,0.0498046875,0.4266357421875,0.8033447265625,36.0107421875,-94.482421875,55.0537109375
21673.040574875,0.0498046875,0.4266357421875,0.8165283203125,36.0107421875,-94.482421875,55.0537109375
21673.0556275,0.0498046875,0.4266357421875,0.8165283203125,50.1708984375,-94.482421875,55.0537109375
21673.055871083,-0.0008544921875,0.4266357421875,0.8165283203125,50.1708984375,-94.482421875,55.0537109375
21673.05600175,-0.0008544921875,0.35107421875,0.8165283203125,50.1708984375,-94.482421875,55.0537109375
21673.0573395,-0.0008544921875,0.35107421875,0.7564697265625,50.1708984375,-94.482421875,55.0537109375
21673.071727666,-0.0008544921875,0.35107421875,0.7564697265625,50.1708984375,-94.29931640625,55.0537109375
21673.101112458,-0.0008544921875,0.35107421875,0.7564697265625,50.1708984375,-94.29931640625,61.1572265625
21673.120771791,-0.0792236328125,0.35107421875,0.7564697265625,50.1708984375,-94.29931640625,61.1572265625
21673.120869375,-0.0792236328125,0.2193603515625,0.7564697265625,50.1708984375,-94.29931640625,61.1572265625
21673.129631,-0.0792236328125,0.2193603515625,0.6485595703125,50.1708984375,-94.29931640625,61.1572265625
21673.129832,-0.0792236328125,0.2193603515625,0.6485595703125,50.1708984375,-88.07373046875,61.1572265625
21673.144825833,-0.18359375,0.2193603515625,0.6485595703125,50.1708984375,-88.07373046875,61.1572265625
21673.145034375,-0.18359375,0.219970703125,0.6485595703125,50.1708984375,-88.07373046875,61.1572265625
21673.159634791,-0.18359375,0.219970703125,0.55126953125,50.1708984375,-88.07373046875,61.1572265625
21673.159837583,-0.18359375,0.219970703125,0.55126953125,50.1708984375,-88.07373046875,64.697265625
21673.174921333,-0.316162109375,0.219970703125,0.55126953125,50.1708984375,-88.07373046875,64.697265625
21673.175179458,-0.316162109375,-0.0494384765625,0.55126953125,50.1708984375,-88.07373046875,64.697265625
21673.175314666,-0.316162109375,-0.0494384765625,0.36962890625,50.1708984375,-88.07373046875,64.697265625
21673.189572916,-0.316162109375,-0.0494384765625,0.36962890625,50.1708984375,-60.72998046875,64.697265625
21673.189788208,-0.316162109375,-0.0494384765625,0.36962890625,50.1708984375,-60.72998046875,51.6357421875
21673.20448075,-0.331298828125,-0.0494384765625,0.36962890625,50.1708984375,-60.72998046875,51.6357421875
21673.204675333,-0.331298828125,0.013916015625,0.36962890625,50.1708984375,-60.72998046875,51.6357421875
21673.205756875,-0.331298828125,0.013916015625,0.3372802734375,50.1708984375,-60.72998046875,51.6357421875
21673.220332583,-0.331298828125,0.013916015625,0.3372802734375,50.1708984375,-50.6591796875,51.6357421875
21673.280437291,-0.331298828125,0.013916015625,0.3372802734375,50.1708984375,-50.6591796875,39.6728515625
21673.280889,-0.3177490234375,0.013916015625,0.3372802734375,50.1708984375,-50.6591796875,39.6728515625
21673.281067041,-0.3177490234375,-0.0010986328125,0.3372802734375,50.1708984375,-50.6591796875,39.6728515625
21673.308851208,-0.3177490234375,-0.0010986328125,0.2742919921875,50.1708984375,-50.6591796875,39.6728515625
21673.339594416,-0.3177490234375,-0.0010986328125,0.2742919921875,50.1708984375,-30.6396484375,39.6728515625
21673.339805583,-0.3177490234375,-0.0010986328125,0.2742919921875,50.1708984375,-30.6396484375,17.4560546875
21673.340336541,-0.361572265625,-0.0010986328125,0.2742919921875,50.1708984375,-30.6396484375,17.4560546875
21673.340535333,-0.361572265625,0.122802734375,0.2742919921875,50.1708984375,-30.6396484375,17.4560546875
21673.354448208,-0.361572265625,0.122802734375,0.2742919921875,50.1708984375,23.37646484375,17.4560546875
21673.370749916,-0.361572265625,0.122802734375,0.2742919921875,50.1708984375,23.37646484375,-21.91162109375
21673.370831291,-0.29248046875,0.122802734375,0.2742919921875,50.1708984375,23.37646484375,-21.91162109375
21673.370902166,-0.29248046875,0.0245361328125,0.2742919921875,50.1708984375,23.37646484375,-21.91162109375
21673.386925375,-0.29248046875,0.0245361328125,0.4356689453125,50.1708984375,23.37646484375,-21.91162109375
21673.387004125,-0.29248046875,0.0245361328125,0.4356689453125,50.1708984375,48.40087890625,-21.91162109375
21673.41452325,-0.29248046875,0.0245361328125,0.4356689453125,50.1708984375,48.40087890625,-42.96875
21673.420100375,-0.219970703125,0.0245361328125,0.4356689453125,50.1708984375,48.40087890625,-42.96875
21673.420216,-0.219970703125,0.4969482421875,0.4356689453125,50.1708984375,48.40087890625,-42.96875
21673.420285083,-0.219970703125,0.4969482421875,0.5994873046875,50.1708984375,48.40087890625,-42.96875
21673.444478541,-0.219970703125,0.4969482421875,0.5994873046875,50.1708984375,55.96923828125,-42.96875
21673.444675041,-0.219970703125,0.4969482421875,0.5994873046875,50.1708984375,55.96923828125,-56.2744140625
21673.445437458,-0.17578125,0.4969482421875,0.5994873046875,50.1708984375,55.96923828125,-56.2744140625
21673.445665125,-0.17578125,0.6751708984375,0.5994873046875,50.1708984375,55.96923828125,-56.2744140625
21673.474112,-0.17578125,0.6751708984375,0.5994873046875,50.1708984375,58.77685546875,-56.2744140625
21673.474300458,-0.17578125,0.6751708984375,0.5994873046875,50.1708984375,58.77685546875,-44.5556640625
21673.489745958,-0.2005615234375,0.6751708984375,0.5994873046875,50.1708984375,58.77685546875,-44.5556640625
21673.489950125,-0.2005615234375,0.5384521484375,0.5994873046875,50.1708984375,58.77685546875,-44.5556640625
21673.490068125,-0.2005615234375,0.5384521484375,0.5994873046875,50.1708984375,61.279296875,-44.5556640625
21673.490427208,-0.2005615234375,0.5384521484375,0.5994873046875,50.1708984375,61.279296875,-35.82763671875
21673.519526208,-0.1568603515625,0.5384521484375,0.5994873046875,50.1708984375,61.279296875,-35.82763671875
21673.519722916,-0.1568603515625,0.5355224609375,0.5994873046875,50.1708984375,61.279296875,-35.82763671875
21673.520349375,-0.1568603515625,0.5355224609375,0.6448974609375,50.1708984375,61.279296875,-35.82763671875
21673.520522333,-0.1568603515625,0.5355224609375,0.6448974609375,-70.98388671875,61.279296875,-35.82763671875
21673.549657333,-0.193115234375,0.5355224609375,0.6448974609375,-70.98388671875,61.279296875,-35.82763671875
21673.549852791,-0.193115234375,0.756103515625,0.6448974609375,-70.98388671875,61.279296875,-35.82763671875
21673.550664333,-0.193115234375,0.756103515625,0.86279296875,-70.98388671875,61.279296875,-35.82763671875
21673.579730541,-0.193115234375,0.756103515625,0.86279296875,-70.98388671875,58.837890625,-35.82763671875
21673.579998958,-0.193115234375,0.756103515625,0.86279296875,-70.98388671875,58.837890625,-45.83740234375
21673.580277,-0.07568359375,0.756103515625,0.86279296875,-70.98388671875,58.837890625,-45.83740234375
21673.60338025,-0.07568359375,0.756103515625,0.6212158203125,-70.98388671875,58.837890625,-45.83740234375
21673.603464583,-0.07568359375,0.756103515625,0.6212158203125,-20.93505859375,58.837890625,-45.83740234375
21673.609856625,-0.07568359375,0.756103515625,0.6212158203125,-20.93505859375,55.72509765625,-45.83740234375
21673.610091916,-0.1495361328125,0.756103515625,0.6212158203125,-20.93505859375,55.72509765625,-45.83740234375
21673.610201125,-0.1495361328125,0.6351318359375,0.6212158203125,-20.93505859375,55.72509765625,-45.83740234375
21673.610470125,-0.1495361328125,0.6351318359375,0.8492431640625,-20.93505859375,55.72509765625,-45.83740234375
21673.624598291,-0.1495361328125,0.6351318359375,0.8492431640625,-20.93505859375,60.05859375,-45.83740234375
21673.624757458,-0.1495361328125,0.6351318359375,0.8492431640625,-20.93505859375,60.05859375,-55.908203125
21673.654559583,-0.0013427734375,0.6351318359375,0.8492431640625,-20.93505859375,60.05859375,-55.908203125
21673.654757416,-0.0013427734375,0.7083740234375,0.8492431640625,-20.93505859375,60.05859375,-55.908203125
21673.65532825,-0.0013427734375,0.7083740234375,0.7039794921875,-20.93505859375,60.05859375,-55.908203125
21673.655503166,-0.0013427734375,0.7083740234375,0.7039794921875,-20.93505859375,64.63623046875,-55.908203125
21673.684910458,0.073486328125,0.7083740234375,0.7039794921875,-20.93505859375,64.63623046875,-55.908203125
21673.685099666,0.073486328125,0.676513671875,0.7039794921875,-20.93505859375,64.63623046875,-55.908203125
21673.714410166,0.073486328125,0.676513671875,0.7470703125,-20.93505859375,64.63623046875,-55.908203125
21673.71464475,0.073486328125,0.676513671875,0.7470703125,-20.93505859375,61.4013671875,-55.908203125
21673.715747125,0.0244140625,0.676513671875,0.7470703125,-20.93505859375,61.4013671875,-55.908203125
21673.716007291,0.0244140625,0.6258544921875,0.7470703125,-20.93505859375,61.4013671875,-55.908203125
21673.737461,0.0244140625,0.6258544921875,0.7470703125,-36.9873046875,61.4013671875,-55.908203125
21673.737560291,0.0244140625,0.6258544921875,0.7470703125,-36.9873046875,66.83349609375,-55.908203125
21673.774872208,0.0244140625,0.6258544921875,0.7470703125,-36.9873046875,66.83349609375,-69.3359375
21673.77507525,0.23974609375,0.6258544921875,0.7470703125,-36.9873046875,66.83349609375,-69.3359375
21673.790911291,0.23974609375,0.7479248046875,0.7470703125,-36.9873046875,66.83349609375,-69.3359375
21673.79117425,0.23974609375,0.7479248046875,0.77880859375,-36.9873046875,66.83349609375,-69.3359375
21673.791307166,0.23974609375,0.7479248046875,0.77880859375,-36.9873046875,67.87109375,-69.3359375
21673.791478291,0.23974609375,0.7479248046875,0.77880859375,-36.9873046875,67.87109375,-78.61328125
21673.806244333,0.3380126953125,0.7479248046875,0.77880859375,-36.9873046875,67.87109375,-78.61328125
21673.806496458,0.3380126953125,0.819580078125,0.77880859375,-36.9873046875,67.87109375,-78.61328125
21673.806587875,0.3380126953125,0.819580078125,0.6800537109375,-36.9873046875,67.87109375,-78.61328125
21673.820553041,0.3380126953125,0.819580078125,0.6800537109375,-36.9873046875,61.82861328125,-78.61328125
21673.820645916,0.3380126953125,0.819580078125,0.6800537109375,-36.9873046875,61.82861328125,-65.36865234375
21673.850439708,0.4488525390625,0.819580078125,0.6800537109375,-36.9873046875,61.82861328125,-65.36865234375
21673.850669916,0.4488525390625,0.7884521484375,0.6800537109375,-36.9873046875,61.82861328125,-65.36865234375
21673.850792333,0.4488525390625,0.7884521484375,0.6881103515625,-36.9873046875,61.82861328125,-65.36865234375
21673.881843041,0.4488525390625,0.7884521484375,0.6881103515625,-36.9873046875,58.04443359375,-65.36865234375
21673.882162,0.4488525390625,0.7884521484375,0.6881103515625,-36.9873046875,58.04443359375,-65.4296875
21673.882265125,0.4322509765625,0.7884521484375,0.6881103515625,-36.9873046875,58.04443359375,-65.4296875
21673.903581416,0.4322509765625,0.7884521484375,0.69677734375,-36.9873046875,58.04443359375,-65.4296875
21673.903657208,0.4322509765625,0.7884521484375,0.69677734375,-5.92041015625,58.04443359375,-65.4296875
21673.90373975,0.4322509765625,0.7884521484375,0.69677734375,-5.92041015625,52.3681640625,-65.4296875
21673.911014208,0.494384765625,0.7884521484375,0.69677734375,-5.92041015625,52.3681640625,-65.4296875
21673.924935833,0.494384765625,0.7236328125,0.69677734375,-5.92041015625,52.3681640625,-65.4296875
21673.925091791,0.494384765625,0.7236328125,0.532958984375,-5.92041015625,52.3681640625,-65.4296875
21673.925172625,0.494384765625,0.7236328125,0.532958984375,-5.92041015625,48.52294921875,-65.4296875
21673.925539041,0.494384765625,0.7236328125,0.532958984375,-5.92041015625,48.52294921875,-40.4052734375
21673.941157041,0.545166015625,0.7236328125,0.532958984375,-5.92041015625,48.52294921875,-40.4052734375
21673.941351833,0.545166015625,0.767578125,0.532958984375,-5.92041015625,48.52294921875,-40.4052734375
21673.941451833,0.545166015625,0.767578125,0.5643310546875,-5.92041015625,48.52294921875,-40.4052734375
21673.955753875,0.545166015625,0.767578125,0.5643310546875,-5.92041015625,46.2646484375,-40.4052734375
21673.955916541,0.545166015625,0.767578125,0.5643310546875,-5.92041015625,46.2646484375,-38.6962890625
21673.9865995,0.4954833984375,0.767578125,0.5643310546875,-5.92041015625,46.2646484375,-38.6962890625
21673.986914125,0.4954833984375,0.8802490234375,0.5643310546875,-5.92041015625,46.2646484375,-38.6962890625
21673.987046291,0.4954833984375,0.8802490234375,0.6346435546875,-5.92041015625,46.2646484375,-38.6962890625
21673.987131583,0.4954833984375,0.8802490234375,0.6346435546875,-5.92041015625,42.6025390625,-38.6962890625
21674.001771666,0.487548828125,0.8802490234375,0.6346435546875,-5.92041015625,42.6025390625,-38.6962890625
21674.018665083,0.487548828125,0.6422119140625,0.6346435546875,-5.92041015625,42.6025390625,-38.6962890625
21674.018969791,0.487548828125,0.6422119140625,0.488525390625,-5.92041015625,42.6025390625,-38.6962890625
21674.019229333,0.487548828125,0.6422119140625,0.488525390625,-5.92041015625,40.58837890625,-38.6962890625
21674.019370333,0.487548828125,0.6422119140625,0.488525390625,-5.92041015625,40.58837890625,-20.56884765625
21674.03700775,0.4786376953125,0.6422119140625,0.488525390625,-5.92041015625,40.58837890625,-20.56884765625
21674.037092333,0.4786376953125,0.7021484375,0.488525390625,-5.92041015625,40.58837890625,-20.56884765625
21674.044388333,0.4786376953125,0.7021484375,0.499267578125,-5.92041015625,40.58837890625,-20.56884765625
21674.04460625,0.4786376953125,0.7021484375,0.499267578125,-5.92041015625,42.1142578125,-20.56884765625
21674.044712958,0.4786376953125,0.7021484375,0.499267578125,-5.92041015625,42.1142578125,-21.17919921875
21674.059565291,0.552490234375,0.7021484375,0.499267578125,-5.92041015625,42.1142578125,-21.17919921875
21674.059726708,0.552490234375,0.8026123046875,0.499267578125,-5.92041015625,42.1142578125,-21.17919921875
21674.0886365,0.552490234375,0.8026123046875,0.5355224609375,-5.92041015625,42.1142578125,-21.17919921875
21674.104762916,0.552490234375,0.8026123046875,0.5355224609375,-5.92041015625,47.30224609375,-21.17919921875
21674.105050083,0.552490234375,0.8026123046875,0.5355224609375,-5.92041015625,47.30224609375,-16.9677734375
21674.105191791,0.5716552734375,0.8026123046875,0.5355224609375,-5.92041015625,47.30224609375,-16.9677734375
21674.149361458,0.5716552734375,0.8026123046875,0.480224609375,-5.92041015625,47.30224609375,-16.9677734375
21674.149544666,0.5716552734375,0.8026123046875,0.480224609375,-5.92041015625,50.9033203125,-16.9677734375
21674.178767708,0.5716552734375,0.8026123046875,0.480224609375,-5.92041015625,50.9033203125,-9.46044921875
21674.1947865,0.6641845703125,0.8026123046875,0.480224609375,-5.92041015625,50.9033203125,-9.46044921875
21674.194961,0.6641845703125,0.8026123046875,0.5228271484375,-5.92041015625,50.9033203125,-9.46044921875
21674.20992,0.6641845703125,0.8026123046875,0.5228271484375,5.79833984375,50.9033203125,-9.46044921875
21674.210141458,0.6641845703125,0.8026123046875,0.5228271484375,5.79833984375,50.9033203125,-4.2724609375
21674.210254875,0.59619140625,0.8026123046875,0.5228271484375,5.79833984375,50.9033203125,-4.2724609375
21674.210506375,0.59619140625,0.7359619140625,0.5228271484375,5.79833984375,50.9033203125,-4.2724609375
21674.224650958,0.59619140625,0.7359619140625,0.5228271484375,5.79833984375,14.95361328125,-4.2724609375
21674.224816666,0.59619140625,0.7359619140625,0.5228271484375,5.79833984375,14.95361328125,-3.47900390625
21674.269644708,0.6060791015625,0.7359619140625,0.5228271484375,5.79833984375,14.95361328125,-3.47900390625
21674.274253416,0.6060791015625,0.7171630859375,0.5228271484375,5.79833984375,14.95361328125,-3.47900390625
21674.274532791,0.6060791015625,0.7171630859375,0.4569091796875,5.79833984375,14.95361328125,-3.47900390625
21674.274619791,0.6060791015625,0.7171630859375,0.4569091796875,1.52587890625,14.95361328125,-3.47900390625
21674.28452025,0.639404296875,0.7171630859375,0.4569091796875,1.52587890625,14.95361328125,-3.47900390625
21674.30364425,0.639404296875,0.6929931640625,0.4569091796875,1.52587890625,14.95361328125,-3.47900390625
21674.303772625,0.639404296875,0.6929931640625,0.4520263671875,1.52587890625,14.95361328125,-3.47900390625
21674.303847208,0.639404296875,0.6929931640625,0.4520263671875,1.52587890625,18.49365234375,-3.47900390625
21674.303943458,0.639404296875,0.6929931640625,0.4520263671875,1.52587890625,18.49365234375,2.62451171875
21674.320353541,0.6214599609375,0.6929931640625,0.4520263671875,1.52587890625,18.49365234375,2.62451171875
21674.3204165,0.6214599609375,0.667236328125,0.4520263671875,1.52587890625,18.49365234375,2.62451171875
21674.32960425,0.6214599609375,0.667236328125,0.440673828125,1.52587890625,18.49365234375,2.62451171875
21674.329737958,0.6214599609375,0.667236328125,0.440673828125,1.52587890625,9.58251953125,2.62451171875
21674.344922833,0.6214599609375,0.667236328125,0.440673828125,1.52587890625,9.58251953125,2.86865234375
21674.345116958,0.61572265625,0.667236328125,0.440673828125,1.52587890625,9.58251953125,2.86865234375
21674.345224666,0.61572265625,0.6893310546875,0.440673828125,1.52587890625,9.58251953125,2.86865234375
21674.345494416,0.61572265625,0.6893310546875,0.431640625,1.52587890625,9.58251953125,2.86865234375
21674.3737605,0.61572265625,0.6893310546875,0.431640625,1.52587890625,3.47900390625,2.86865234375
21674.3897705,0.61572265625,0.6893310546875,0.431640625,1.52587890625,3.47900390625,4.39453125
21674.389980708,0.5911865234375,0.6893310546875,0.431640625,1.52587890625,3.47900390625,4.39453125
21674.420043208,0.5911865234375,0.664306640625,0.431640625,1.52587890625,3.47900390625,4.39453125
21674.420109166,0.5911865234375,0.664306640625,0.392333984375,1.52587890625,3.47900390625,4.39453125
21674.420167041,0.5968017578125,0.664306640625,0.392333984375,1.52587890625,3.47900390625,4.39453125
21674.420224708,0.5968017578125,0.6690673828125,0.392333984375,1.52587890625,3.47900390625,4.39453125
21674.420281125,0.5968017578125,0.6690673828125,0.3670654296875,1.52587890625,3.47900390625,4.39453125
21674.44898175,0.5968017578125,0.6690673828125,0.3670654296875,1.52587890625,3.47900390625,4.39453125
21674.479508125,0.6331787109375,0.6690673828125,0.3670654296875,1.52587890625,3.47900390625,4.39453125
21674.479626708,0.6331787109375,0.6671142578125,0.3670654296875,1.52587890625,3.47900390625,4.39453125
21674.480015541,0.6331787109375,0.6671142578125,0.3426513671875,1.52587890625,3.47900390625,4.39453125
21674.502772916,0.6331787109375,0.6671142578125,0.3426513671875,1.52587890625,3.47900390625,3.11279296875
21674.539738625,0.62158203125,0.6671142578125,0.3426513671875,1.52587890625,3.47900390625,3.11279296875
21674.539857083,0.62158203125,0.659423828125,0.3426513671875,1.52587890625,3.47900390625,3.11279296875
21674.540429833,0.62158203125,0.659423828125,0.357177734375,1.52587890625,3.47900390625,3.11279296875
21674.5406605,0.62158203125,0.659423828125,0.357177734375,1.5869140625,3.47900390625,3.11279296875
21674.554616291,0.6075439453125,0.659423828125,0.357177734375,1.5869140625,3.47900390625,3.11279296875
21674.5547945,0.6075439453125,0.6641845703125,0.357177734375,1.5869140625,3.47900390625,3.11279296875
21674.56975675,0.6075439453125,0.6641845703125,0.35205078125,1.5869140625,3.47900390625,3.11279296875
21674.569944291,0.6075439453125,0.6641845703125,0.35205078125,1.5869140625,-1.03759765625,3.11279296875
21674.570054,0.6075439453125,0.6641845703125,0.35205078125,1.5869140625,-1.03759765625,2.197265625
21674.59940625,0.5986328125,0.6641845703125,0.35205078125,1.5869140625,-1.03759765625,2.197265625
21674.599560458,0.5986328125,0.66796875,0.35205078125,1.5869140625,-1.03759765625,2.197265625
21674.600209291,0.5986328125,0.66796875,0.3653564453125,1.5869140625,-1.03759765625,2.197265625
21674.600371583,0.5986328125,0.66796875,0.3653564453125,1.708984375,-1.03759765625,2.197265625
NEW_REP,,,,,,
21674.619673583,0.6279296875,0.66796875,0.3653564453125,1.708984375,-1.03759765625,2.197265625
21674.619741416,0.6279296875,0.6773681640625,0.3653564453125,1.708984375,-1.03759765625,2.197265625
21674.629581375,0.6279296875,0.6773681640625,0.4232177734375,1.708984375,-1.03759765625,2.197265625
21674.636390375,0.6279296875,0.6773681640625,0.4232177734375,1.708984375,-1.953125,2.197265625
21674.636505666,0.6279296875,0.6773681640625,0.4232177734375,1.708984375,-1.953125,0.0
21674.644632666,0.596435546875,0.6773681640625,0.4232177734375,1.708984375,-1.953125,0.0
21674.644788333,0.596435546875,0.6962890625,0.4232177734375,1.708984375,-1.953125,0.0
21674.644874333,0.596435546875,0.6962890625,0.5631103515625,1.708984375,-1.953125,0.0
21674.659618083,0.596435546875,0.6962890625,0.5631103515625,1.708984375,-8.1787109375,0.0
21674.674785041,0.596435546875,0.6962890625,0.5631103515625,1.708984375,-8.1787109375,1.15966796875
21674.674979583,0.5738525390625,0.6962890625,0.5631103515625,1.708984375,-8.1787109375,1.15966796875
21674.675060916,0.5738525390625,0.7191162109375,0.5631103515625,1.708984375,-8.1787109375,1.15966796875
21674.675594125,0.5738525390625,0.7191162109375,0.7122802734375,1.708984375,-8.1787109375,1.15966796875
21674.6895575,0.5738525390625,0.7191162109375,0.7122802734375,1.708984375,-13.48876953125,1.15966796875
21674.689683208,0.5738525390625,0.7191162109375,0.7122802734375,1.708984375,-13.48876953125,3.47900390625
21674.704710666,0.5400390625,0.7191162109375,0.7122802734375,1.708984375,-13.48876953125,3.47900390625
21674.704871166,0.5400390625,0.7139892578125,0.7122802734375,1.708984375,-13.48876953125,3.47900390625
21674.721089583,0.5400390625,0.7139892578125,0.9725341796875,1.708984375,-13.48876953125,3.47900390625
21674.7212895,0.5400390625,0.7139892578125,0.9725341796875,1.708984375,-20.81298828125,3.47900390625
21674.721387916,0.5400390625,0.7139892578125,0.9725341796875,1.708984375,-20.81298828125,2.3193359375
21674.749615833,0.57958984375,0.7139892578125,0.9725341796875,1.708984375,-20.81298828125,2.3193359375
21674.749743583,0.57958984375,0.810302734375,0.9725341796875,1.708984375,-20.81298828125,2.3193359375
21674.753023375,0.57958984375,0.810302734375,1.2445068359375,1.708984375,-20.81298828125,2.3193359375
21674.796360416,0.57958984375,0.810302734375,1.2445068359375,1.708984375,-40.34423828125,2.3193359375
21674.7965525,0.57958984375,0.810302734375,1.2445068359375,1.708984375,-40.34423828125,2.197265625
21674.825988333,0.6934814453125,0.810302734375,1.2445068359375,1.708984375,-40.34423828125,2.197265625
21674.826307375,0.6934814453125,0.810302734375,1.3984375,1.708984375,-40.34423828125,2.197265625
21674.826445125,0.6934814453125,0.810302734375,1.3984375,1.708984375,-77.880859375,2.197265625
21674.8265315,0.6934814453125,0.810302734375,1.3984375,1.708984375,-77.880859375,7.9345703125
21674.842023208,0.6934814453125,0.8695068359375,1.3984375,1.708984375,-77.880859375,7.9345703125
21674.842288041,0.6934814453125,0.8695068359375,1.2840576171875,1.708984375,-77.880859375,7.9345703125
21674.842397541,0.6934814453125,0.8695068359375,1.2840576171875,78.7353515625,-77.880859375,7.9345703125
21674.869700833,0.6934814453125,0.8695068359375,1.2840576171875,78.7353515625,-77.880859375,20.99609375
21674.887459875,0.848388671875,0.8695068359375,1.2840576171875,78.7353515625,-77.880859375,20.99609375
21674.887555791,0.848388671875,0.8717041015625,1.2840576171875,78.7353515625,-77.880859375,20.99609375
21674.904304,0.848388671875,0.8717041015625,1.05419921875,78.7353515625,-77.880859375,20.99609375
21674.945411375,0.848388671875,0.8717041015625,1.05419921875,78.7353515625,-165.0390625,20.99609375
21674.945752333,0.848388671875,0.8717041015625,1.05419921875,78.7353515625,-165.0390625,31.005859375
21674.945925333,0.719482421875,0.8717041015625,1.05419921875,78.7353515625,-165.0390625,31.005859375
21674.970472833,0.719482421875,0.803466796875,1.05419921875,78.7353515625,-165.0390625,31.005859375
21674.970556375,0.719482421875,0.803466796875,1.05419921875,78.7353515625,-184.814453125,31.005859375
21674.970628875,0.719482421875,0.803466796875,1.05419921875,78.7353515625,-184.814453125,42.29736328125
21675.004582291,0.5018310546875,0.803466796875,1.05419921875,78.7353515625,-184.814453125,42.29736328125
21675.004778916,0.5018310546875,0.7183837890625,1.05419921875,78.7353515625,-184.814453125,42.29736328125
21675.005390041,0.5018310546875,0.7183837890625,0.526123046875,78.7353515625,-184.814453125,42.29736328125
21675.005564291,0.5018310546875,0.7183837890625,0.526123046875,56.7626953125,-184.814453125,42.29736328125
21675.019650125,0.3773193359375,0.7183837890625,0.526123046875,56.7626953125,-184.814453125,42.29736328125
21675.019810333,0.3773193359375,0.6103515625,0.526123046875,56.7626953125,-184.814453125,42.29736328125
21675.049580916,0.3773193359375,0.6103515625,0.4681396484375,56.7626953125,-184.814453125,42.29736328125
21675.049715,0.3773193359375,0.6103515625,0.4681396484375,56.7626953125,-156.005859375,42.29736328125
21675.050747916,0.3773193359375,0.6103515625,0.4681396484375,56.7626953125,-156.005859375,65.5517578125
21675.050879916,0.1483154296875,0.6103515625,0.4681396484375,56.7626953125,-156.005859375,65.5517578125
21675.079450083,0.1483154296875,0.6103515625,0.4473876953125,56.7626953125,-156.005859375,65.5517578125
21675.085682916,0.1483154296875,0.6103515625,0.4473876953125,62.19482421875,-156.005859375,65.5517578125
21675.109413041,0.1483154296875,0.6103515625,0.4473876953125,62.19482421875,-125.3662109375,65.5517578125
21675.1095115,0.0108642578125,0.6103515625,0.4473876953125,62.19482421875,-125.3662109375,65.5517578125
21675.125590875,0.0108642578125,0.255126953125,0.4473876953125,62.19482421875,-125.3662109375,65.5517578125
21675.1258455,0.0108642578125,0.255126953125,0.33349609375,62.19482421875,-125.3662109375,65.5517578125
21675.126107166,0.0108642578125,0.255126953125,0.33349609375,62.19482421875,-107.0556640625,65.5517578125
21675.126187208,0.0108642578125,0.255126953125,0.33349609375,62.19482421875,-107.0556640625,52.06298828125
21675.154599625,-0.1051025390625,0.255126953125,0.33349609375,62.19482421875,-107.0556640625,52.06298828125
21675.154698166,-0.1051025390625,0.2872314453125,0.33349609375,62.19482421875,-107.0556640625,52.06298828125
21675.154751958,-0.1051025390625,0.2872314453125,0.365966796875,62.19482421875,-107.0556640625,52.06298828125
21675.155333791,-0.1051025390625,0.2872314453125,0.365966796875,5.0048828125,-107.0556640625,52.06298828125
21675.184105583,-0.165283203125,0.2872314453125,0.365966796875,5.0048828125,-107.0556640625,52.06298828125
21675.1841995,-0.165283203125,0.2528076171875,0.365966796875,5.0048828125,-107.0556640625,52.06298828125
21675.199474916,-0.165283203125,0.2528076171875,0.3134765625,5.0048828125,-107.0556640625,52.06298828125
21675.199587625,-0.165283203125,0.2528076171875,0.3134765625,5.0048828125,-65.5517578125,52.06298828125
21675.199656416,-0.2392578125,0.2528076171875,0.3134765625,5.0048828125,-65.5517578125,52.06298828125
21675.200486041,-0.2392578125,0.146728515625,0.3134765625,5.0048828125,-65.5517578125,52.06298828125
21675.218249208,-0.2392578125,0.146728515625,0.3134765625,6.04248046875,-65.5517578125,52.06298828125
21675.235008208,-0.2392578125,0.146728515625,0.3134765625,6.04248046875,-50.47607421875,52.06298828125
21675.244628708,-0.2392578125,0.146728515625,0.3134765625,6.04248046875,-50.47607421875,37.7197265625
21675.244738333,-0.3079833984375,0.146728515625,0.3134765625,6.04248046875,-50.47607421875,37.7197265625
21675.244803666,-0.3079833984375,0.128662109375,0.3134765625,6.04248046875,-50.47607421875,37.7197265625
21675.251782041,-0.3079833984375,0.128662109375,0.3048095703125,6.04248046875,-50.47607421875,37.7197265625
21675.274238208,-0.3272705078125,0.128662109375,0.3048095703125,6.04248046875,-50.47607421875,37.7197265625
21675.274326583,-0.3272705078125,0.1583251953125,0.3048095703125,6.04248046875,-50.47607421875,37.7197265625
21675.275185041,-0.3272705078125,0.1583251953125,0.3551025390625,6.04248046875,-50.47607421875,37.7197265625
21675.275268166,-0.3272705078125,0.1583251953125,0.3551025390625,0.6103515625,-50.47607421875,37.7197265625
21675.289507666,-0.373291015625,0.1583251953125,0.3551025390625,0.6103515625,-50.47607421875,37.7197265625
21675.289576666,-0.373291015625,0.132568359375,0.3551025390625,0.6103515625,-50.47607421875,37.7197265625
21675.290744333,-0.373291015625,0.132568359375,0.3743896484375,0.6103515625,-50.47607421875,37.7197265625
21675.304316458,-0.373291015625,0.132568359375,0.3743896484375,0.6103515625,7.99560546875,37.7197265625
21675.304395208,-0.373291015625,0.132568359375,0.3743896484375,0.6103515625,7.99560546875,15.19775390625
21675.349498,-0.3782958984375,0.132568359375,0.3743896484375,0.6103515625,7.99560546875,15.19775390625
21675.349581291,-0.3782958984375,0.1053466796875,0.3743896484375,0.6103515625,7.99560546875,15.19775390625
21675.394169416,-0.3782958984375,0.1053466796875,0.4462890625,0.6103515625,7.99560546875,15.19775390625
21675.395741958,-0.3782958984375,0.1053466796875,0.4462890625,0.6103515625,27.64892578125,15.19775390625
21675.395901208,-0.37109375,0.1053466796875,0.4462890625,0.6103515625,27.64892578125,15.19775390625
21675.395984375,-0.37109375,0.1612548828125,0.4462890625,0.6103515625,27.64892578125,15.19775390625
21675.409502708,-0.37109375,0.1612548828125,0.4462890625,-5.79833984375,27.64892578125,15.19775390625
21675.409646416,-0.37109375,0.1612548828125,0.4462890625,-5.79833984375,38.26904296875,15.19775390625
21675.409729458,-0.37109375,0.1612548828125,0.4462890625,-5.79833984375,38.26904296875,0.18310546875
21675.45526725,-0.303955078125,0.1612548828125,0.4462890625,-5.79833984375,38.26904296875,0.18310546875
21675.455462583,-0.303955078125,0.2593994140625,0.4462890625,-5.79833984375,38.26904296875,0.18310546875
21675.455525916,-0.303955078125,0.2593994140625,0.7579345703125,-5.79833984375,38.26904296875,0.18310546875
21675.455770291,-0.303955078125,0.2593994140625,0.7579345703125,-5.79833984375,55.84716796875,0.18310546875
21675.485977916,-0.2996826171875,0.2593994140625,0.7579345703125,-5.79833984375,55.84716796875,0.18310546875
21675.486035083,-0.2996826171875,0.3592529296875,0.7579345703125,-5.79833984375,55.84716796875,0.18310546875
21675.486081333,-0.2996826171875,0.3592529296875,0.8831787109375,-5.79833984375,55.84716796875,0.18310546875
21675.486126666,-0.2996826171875,0.3592529296875,0.8831787109375,-6.65283203125,55.84716796875,0.18310546875
21675.502730333,-0.247802734375,0.3592529296875,0.8831787109375,-6.65283203125,55.84716796875,0.18310546875
21675.502784166,-0.247802734375,0.313720703125,0.8831787109375,-6.65283203125,55.84716796875,0.18310546875
21675.502830708,-0.247802734375,0.313720703125,0.9049072265625,-6.65283203125,55.84716796875,0.18310546875
21675.519019625,-0.247802734375,0.313720703125,0.9049072265625,-6.65283203125,65.85693359375,0.18310546875
21675.519106458,-0.247802734375,0.313720703125,0.9049072265625,-6.65283203125,65.85693359375,-8.36181640625
21675.53569325,-0.2164306640625,0.313720703125,0.9049072265625,-6.65283203125,65.85693359375,-8.36181640625
21675.535750666,-0.2164306640625,0.3072509765625,0.9049072265625,-6.65283203125,65.85693359375,-8.36181640625
21675.535801958,-0.2164306640625,0.3072509765625,0.88134765625,-6.65283203125,65.85693359375,-8.36181640625
21675.552254875,-0.2164306640625,0.3072509765625,0.88134765625,-6.65283203125,62.92724609375,-8.36181640625
21675.559796333,-0.2164306640625,0.3072509765625,0.88134765625,-6.65283203125,62.92724609375,-9.82666015625
21675.559954291,-0.1285400390625,0.3072509765625,0.88134765625,-6.65283203125,62.92724609375,-9.82666015625
21675.560036916,-0.1285400390625,0.2935791015625,0.88134765625,-6.65283203125,62.92724609375,-9.82666015625
21675.56066875,-0.1285400390625,0.2935791015625,0.8079833984375,-6.65283203125,62.92724609375,-9.82666015625
21675.574643291,-0.1285400390625,0.2935791015625,0.8079833984375,-6.65283203125,55.48095703125,-9.82666015625
21675.574803416,-0.1285400390625,0.2935791015625,0.8079833984375,-6.65283203125,55.48095703125,-15.56396484375
21675.604429083,-0.1546630859375,0.2935791015625,0.8079833984375,-6.65283203125,55.48095703125,-15.56396484375
21675.60928575,-0.1546630859375,0.52197265625,0.8079833984375,-6.65283203125,55.48095703125,-15.56396484375
21675.609343583,-0.1546630859375,0.52197265625,0.94189453125,-6.65283203125,55.48095703125,-15.56396484375
21675.609399625,-0.1546630859375,0.52197265625,0.94189453125,-39.85595703125,55.48095703125,-15.56396484375
21675.679952,-0.073486328125,0.52197265625,0.94189453125,-39.85595703125,55.48095703125,-15.56396484375
21675.68361025,-0.073486328125,0.374755859375,0.94189453125,-39.85595703125,55.48095703125,-15.56396484375
21675.683825916,-0.073486328125,0.374755859375,0.7935791015625,-39.85595703125,55.48095703125,-15.56396484375
21675.683891708,-0.073486328125,0.374755859375,0.7935791015625,-19.04296875,55.48095703125,-15.56396484375
21675.702768666,-0.0831298828125,0.374755859375,0.7935791015625,-19.04296875,55.48095703125,-15.56396484375
21675.702837125,-0.0831298828125,0.3135986328125,0.7935791015625,-19.04296875,55.48095703125,-15.56396484375
21675.702896291,-0.0831298828125,0.3135986328125,0.82177734375,-19.04296875,55.48095703125,-15.56396484375
21675.71032175,-0.0831298828125,0.3135986328125,0.82177734375,-19.04296875,41.6259765625,-15.56396484375
21675.710524291,-0.0831298828125,0.3135986328125,0.82177734375,-19.04296875,41.6259765625,-18.798828125
21675.755219416,-0.0059814453125,0.3135986328125,0.82177734375,-19.04296875,41.6259765625,-18.798828125
21675.755445666,-0.0059814453125,0.46484375,0.82177734375,-19.04296875,41.6259765625,-18.798828125
21675.755538875,-0.0059814453125,0.46484375,0.8284912109375,-19.04296875,41.6259765625,-18.798828125
21675.756607291,-0.0059814453125,0.46484375,0.8284912109375,-44.98291015625,41.6259765625,-18.798828125
21675.786081541,-0.0386962890625,0.46484375,0.8284912109375,-44.98291015625,41.6259765625,-18.798828125
21675.786142291,-0.0386962890625,0.581787109375,0.8284912109375,-44.98291015625,41.6259765625,-18.798828125
21675.786207583,-0.0386962890625,0.581787109375,0.914794921875,-44.98291015625,41.6259765625,-18.798828125
21675.829394458,-0.0386962890625,0.581787109375,0.914794921875,-44.98291015625,51.6357421875,-18.798828125
21675.852966875,-0.0386962890625,0.581787109375,0.914794921875,-44.98291015625,51.6357421875,-30.45654296875
21675.853048625,0.0299072265625,0.581787109375,0.914794921875,-44.98291015625,51.6357421875,-30.45654296875
21675.85310325,0.0299072265625,0.581787109375,0.840576171875,-44.98291015625,51.6357421875,-30.45654296875
21675.853154541,0.0299072265625,0.581787109375,0.840576171875,-44.98291015625,64.39208984375,-30.45654296875
21675.875039791,0.1663818359375,0.581787109375,0.840576171875,-44.98291015625,64.39208984375,-30.45654296875
21675.875189583,0.1663818359375,0.62548828125,0.840576171875,-44.98291015625,64.39208984375,-30.45654296875
21675.889739625,0.1663818359375,0.62548828125,0.8662109375,-44.98291015625,64.39208984375,-30.45654296875
21675.889881083,0.1663818359375,0.62548828125,0.8662109375,-23.0712890625,64.39208984375,-30.45654296875
21675.905419833,0.23681640625,0.62548828125,0.8662109375,-23.0712890625,64.39208984375,-30.45654296875
21675.905556708,0.23681640625,0.5855712890625,0.8662109375,-23.0712890625,64.39208984375,-30.45654296875
21675.920186,0.23681640625,0.5855712890625,0.8662109375,-11.8408203125,64.39208984375,-30.45654296875
21675.950670958,0.23681640625,0.5855712890625,0.8662109375,-11.8408203125,59.38720703125,-30.45654296875
21675.950819791,0.326904296875,0.5855712890625,0.8662109375,-11.8408203125,59.38720703125,-30.45654296875
21675.979665458,0.326904296875,0.577880859375,0.8662109375,-11.8408203125,59.38720703125,-30.45654296875
21675.979836,0.326904296875,0.577880859375,0.8662109375,-22.705078125,59.38720703125,-30.45654296875
21675.994527,0.326904296875,0.577880859375,0.8662109375,-22.705078125,59.38720703125,-37.2314453125
21676.024836291,0.367431640625,0.577880859375,0.8662109375,-22.705078125,59.38720703125,-37.2314453125
21676.029509791,0.367431640625,0.577880859375,0.7994384765625,-22.705078125,59.38720703125,-37.2314453125
21676.02966775,0.367431640625,0.577880859375,0.7994384765625,-21.1181640625,59.38720703125,-37.2314453125
21676.029762291,0.367431640625,0.577880859375,0.7994384765625,-21.1181640625,59.38720703125,-31.06689453125
21676.054353208,0.3526611328125,0.577880859375,0.7994384765625,-21.1181640625,59.38720703125,-31.06689453125
21676.054535958,0.3526611328125,0.6605224609375,0.7994384765625,-21.1181640625,59.38720703125,-31.06689453125
21676.055216625,0.3526611328125,0.6605224609375,0.8116455078125,-21.1181640625,59.38720703125,-31.06689453125
21676.055373666,0.3526611328125,0.6605224609375,0.8116455078125,-20.751953125,59.38720703125,-31.06689453125
21676.070406875,0.3885498046875,0.6605224609375,0.8116455078125,-20.751953125,59.38720703125,-31.06689453125
21676.070499833,0.3885498046875,0.6837158203125,0.8116455078125,-20.751953125,59.38720703125,-31.06689453125
21676.07056975,0.3885498046875,0.6837158203125,0.796875,-20.751953125,59.38720703125,-31.06689453125
21676.086654166,0.3885498046875,0.6837158203125,0.796875,-20.751953125,44.0673828125,-31.06689453125
21676.086735625,0.3885498046875,0.6837158203125,0.796875,-20.751953125,44.0673828125,-17.27294921875
21676.160465666,0.3634033203125,0.6837158203125,0.796875,-20.751953125,44.0673828125,-17.27294921875
21676.1609025,0.3634033203125,0.5892333984375,0.796875,-20.751953125,44.0673828125,-17.27294921875
21676.161033416,0.3634033203125,0.5892333984375,0.7335205078125,-20.751953125,44.0673828125,-17.27294921875
21676.161201,0.3634033203125,0.5892333984375,0.7335205078125,-6.7138671875,44.0673828125,-17.27294921875
21676.187493833,0.4027099609375,0.5892333984375,0.7335205078125,-6.7138671875,44.0673828125,-17.27294921875
21676.187592833,0.4027099609375,0.6387939453125,0.7335205078125,-6.7138671875,44.0673828125,-17.27294921875
21676.189764375,0.4027099609375,0.6387939453125,0.6976318359375,-6.7138671875,44.0673828125,-17.27294921875
21676.190027708,0.4027099609375,0.6387939453125,0.6976318359375,-6.7138671875,36.31591796875,-17.27294921875
21676.190136958,0.4027099609375,0.6387939453125,0.6976318359375,-6.7138671875,36.31591796875,-11.77978515625
21676.206129416,0.43994140625,0.6387939453125,0.6976318359375,-6.7138671875,36.31591796875,-11.77978515625
21676.295411291,0.43994140625,0.60791015625,0.6976318359375,-6.7138671875,36.31591796875,-11.77978515625
21676.295786708,0.43994140625,0.60791015625,0.6629638671875,-6.7138671875,36.31591796875,-11.77978515625
21676.295999916,0.43994140625,0.60791015625,0.6629638671875,-6.7138671875,32.16552734375,-11.77978515625
21676.296235166,0.43994140625,0.60791015625,0.6629638671875,-6.7138671875,32.16552734375,2.25830078125
21676.325661666,0.43994140625,0.60791015625,0.644287109375,-6.7138671875,32.16552734375,2.25830078125
21676.325915958,0.43994140625,0.60791015625,0.644287109375,-2.38037109375,32.16552734375,2.25830078125
