Timestamp,Accel_X,Accel_Y,Accel_Z,Gyro_X,Gyro_Y,Gyro_Z
252660.260484291,0.9351806640625,0.0,0.0,0.0,0.0,0.0
252660.287483416,0.9351806640625,0.0,0.0,0.0,0.0,0.0
252660.287722166,0.9351806640625,0.2725830078125,0.0,0.0,0.0,0.0
252660.302446958,0.9388427734375,0.2725830078125,0.0,0.0,0.0,0.0
252660.302612416,0.9388427734375,0.2774658203125,0.0,0.0,0.0,0.0
252660.332247291,0.9365234375,0.2774658203125,0.0,0.0,0.0,0.0
252660.332287416,0.9365234375,0.2845458984375,0.0,0.0,0.0,0.0
252660.347211833,0.9365234375,0.2845458984375,0.0194091796875,0.0,0.0,0.0
252660.347321416,0.9346923828125,0.2845458984375,0.0194091796875,0.0,0.0,0.0
252660.3485455,0.9346923828125,0.2930908203125,0.0194091796875,0.0,0.0,0.0
252660.351664791,0.9346923828125,0.2930908203125,0.015869140625,0.0,0.0,0.0
252660.37732925,0.9300537109375,0.2930908203125,0.015869140625,0.0,0.0,0.0
252660.377411875,0.9300537109375,0.2989501953125,0.015869140625,0.0,0.0,0.0
252660.391883333,0.9300537109375,0.2989501953125,0.009033203125,0.0,0.0,0.0
252660.391971458,0.9273681640625,0.2989501953125,0.009033203125,0.0,0.0,0.0
252660.39270725,0.9273681640625,0.30078125,0.009033203125,0.0,0.0,0.0
252660.392788166,0.9273681640625,0.30078125,0.003173828125,0.0,0.0,0.0
252660.467167083,0.9268798828125,0.30078125,0.003173828125,0.0,0.0,0.0
252660.470413166,0.9268798828125,0.299560546875,0.003173828125,0.0,0.0,0.0
252660.470481875,0.9268798828125,0.299560546875,0.0006103515625,0.0,0.0,0.0
252660.470517583,0.9268798828125,0.299560546875,0.0006103515625,1.5869140625,0.0,0.0
252660.4845375,0.9263916015625,0.299560546875,0.0006103515625,1.5869140625,0.0,0.0
252660.484573291,0.9263916015625,0.2840576171875,0.0006103515625,1.5869140625,0.0,0.0
252660.501030875,0.9263916015625,0.2840576171875,0.0006103515625,1.953125,0.0,0.0
252660.5010725,0.9263916015625,0.2840576171875,0.0006103515625,1.953125,-0.1220703125,0.0
252660.501105333,0.9263916015625,0.2840576171875,0.0006103515625,1.953125,-0.1220703125,2.25830078125
252660.527686291,0.9337158203125,0.2840576171875,0.0006103515625,1.953125,-0.1220703125,2.25830078125
252660.528028333,0.9337158203125,0.281982421875,0.0006103515625,1.953125,-0.1220703125,2.25830078125
252660.534845125,0.9337158203125,0.281982421875,0.01123046875,1.953125,-0.1220703125,2.25830078125
252660.542888125,0.9337158203125,0.281982421875,0.01123046875,1.953125,-0.18310546875,2.25830078125
252660.543231166,0.9337158203125,0.281982421875,0.01123046875,1.953125,-0.18310546875,1.8310546875
252660.557216666,0.9366455078125,0.281982421875,0.01123046875,1.953125,-0.18310546875,1.8310546875
252660.557306583,0.9366455078125,0.2908935546875,0.01123046875,1.953125,-0.18310546875,1.8310546875
252660.571638,0.9366455078125,0.2908935546875,0.019287109375,1.953125,-0.18310546875,1.8310546875
252660.571735333,0.9366455078125,0.2908935546875,0.019287109375,1.953125,-0.54931640625,1.8310546875
252660.572572875,0.9366455078125,0.2908935546875,0.019287109375,1.953125,-0.54931640625,0.244140625
252660.602203666,0.93408203125,0.2908935546875,0.019287109375,1.953125,-0.54931640625,0.244140625
252660.602317375,0.93408203125,0.2891845703125,0.019287109375,1.953125,-0.54931640625,0.244140625
252660.602349875,0.93408203125,0.2891845703125,0.010986328125,1.953125,-0.54931640625,0.244140625
252660.603387333,0.93408203125,0.2891845703125,0.010986328125,2.3193359375,-0.54931640625,0.244140625
252660.6317645,0.9290771484375,0.2891845703125,0.010986328125,2.3193359375,-0.54931640625,0.244140625
252660.631924041,0.9290771484375,0.28857421875,0.010986328125,2.3193359375,-0.54931640625,0.244140625
252660.632588125,0.9290771484375,0.28857421875,0.001953125,2.3193359375,-0.54931640625,0.244140625
252660.661078833,0.9290771484375,0.28857421875,0.001953125,2.3193359375,-1.03759765625,0.244140625
252660.662337458,0.9290771484375,0.28857421875,0.001953125,2.3193359375,-1.03759765625,0.732421875
252660.684225333,0.9276123046875,0.28857421875,0.001953125,2.3193359375,-1.03759765625,0.732421875
252660.684263791,0.9276123046875,0.2869873046875,0.001953125,2.3193359375,-1.03759765625,0.732421875
252660.684296541,0.9276123046875,0.2869873046875,0.0008544921875,2.3193359375,-1.03759765625,0.732421875
252660.708015458,0.9656982421875,0.2869873046875,0.0008544921875,2.3193359375,-1.03759765625,0.732421875
252660.708739041,0.9656982421875,0.2852783203125,0.0008544921875,2.3193359375,-1.03759765625,0.732421875
252660.70932975,0.9656982421875,0.2852783203125,0.0096435546875,2.3193359375,-1.03759765625,0.732421875
252660.709438416,0.9656982421875,0.2852783203125,0.0096435546875,-0.06103515625,-1.03759765625,0.732421875
252660.722861916,0.9315185546875,0.2852783203125,0.0096435546875,-0.06103515625,-1.03759765625,0.732421875
252660.722962625,0.9315185546875,0.2823486328125,0.0096435546875,-0.06103515625,-1.03759765625,0.732421875
252660.724318833,0.9315185546875,0.2823486328125,0.0123291015625,-0.06103515625,-1.03759765625,0.732421875
252660.737519791,0.9315185546875,0.2823486328125,0.0123291015625,-0.06103515625,-0.732421875,0.732421875
252660.737599083,0.9315185546875,0.2823486328125,0.0123291015625,-0.06103515625,-0.732421875,1.64794921875
252660.767370166,0.9307861328125,0.2823486328125,0.0123291015625,-0.06103515625,-0.732421875,1.64794921875
252660.767457833,0.9307861328125,0.2822265625,0.0123291015625,-0.06103515625,-0.732421875,1.64794921875
252660.781765,0.9307861328125,0.2822265625,0.0152587890625,-0.06103515625,-0.732421875,1.64794921875
252660.781852791,0.9307861328125,0.2822265625,0.0152587890625,-0.06103515625,-1.220703125,1.64794921875
252660.782573583,0.9307861328125,0.2822265625,0.0152587890625,-0.06103515625,-1.220703125,1.953125
252660.802381125,0.931396484375,0.2822265625,0.0152587890625,-0.06103515625,-1.220703125,1.953125
252660.802420208,0.931396484375,0.29736328125,0.0152587890625,-0.06103515625,-1.220703125,1.953125
252660.802452291,0.931396484375,0.29736328125,0.0135498046875,-0.06103515625,-1.220703125,1.953125
252660.812346375,0.931396484375,0.29736328125,0.0135498046875,-0.06103515625,-1.15966796875,1.953125
252660.817595583,0.931396484375,0.29736328125,0.0135498046875,-0.06103515625,-1.15966796875,0.9765625
252660.826683875,0.9337158203125,0.29736328125,0.0135498046875,-0.06103515625,-1.15966796875,0.9765625
252660.82676925,0.9337158203125,0.301025390625,0.0135498046875,-0.06103515625,-1.15966796875,0.9765625
252660.833938583,0.9337158203125,0.301025390625,0.0150146484375,-0.06103515625,-1.15966796875,0.9765625
252660.856899625,0.9337158203125,0.301025390625,0.0150146484375,-0.06103515625,-0.48828125,0.9765625
252660.85699175,0.9337158203125,0.301025390625,0.0150146484375,-0.06103515625,-0.48828125,0.3662109375
252660.859198125,0.9302978515625,0.301025390625,0.0150146484375,-0.06103515625,-0.48828125,0.3662109375
252660.859291958,0.9302978515625,0.294189453125,0.0150146484375,-0.06103515625,-0.48828125,0.3662109375
252660.872764208,0.9302978515625,0.294189453125,0.0150146484375,-0.06103515625,-0.732421875,0.3662109375
252660.873291666,0.9302978515625,0.294189453125,0.0150146484375,-0.06103515625,-0.732421875,-0.18310546875
252660.902095833,0.928466796875,0.294189453125,0.0150146484375,-0.06103515625,-0.732421875,-0.18310546875
252660.902245083,0.928466796875,0.2945556640625,0.0150146484375,-0.06103515625,-0.732421875,-0.18310546875
252660.90319725,0.928466796875,0.2945556640625,0.0098876953125,-0.06103515625,-0.732421875,-0.18310546875
252660.905796541,0.928466796875,0.2945556640625,0.0098876953125,0.732421875,-0.732421875,-0.18310546875
252660.92068625,0.928955078125,0.2945556640625,0.0098876953125,0.732421875,-0.732421875,-0.18310546875
252660.920735166,0.928955078125,0.295654296875,0.0098876953125,0.732421875,-0.732421875,-0.18310546875
252660.920768416,0.928955078125,0.295654296875,0.0101318359375,0.732421875,-0.732421875,-0.18310546875
252660.934979666,0.928955078125,0.295654296875,0.0101318359375,0.732421875,-1.40380859375,-0.18310546875
252660.93502475,0.928955078125,0.295654296875,0.0101318359375,0.732421875,-1.40380859375,1.708984375
252660.95129125,0.9310302734375,0.295654296875,0.0101318359375,0.732421875,-1.40380859375,1.708984375
252660.951517625,0.9310302734375,0.2906494140625,0.0101318359375,0.732421875,-1.40380859375,1.708984375
252660.951551708,0.9310302734375,0.2906494140625,0.0067138671875,0.732421875,-1.40380859375,1.708984375
252660.969230541,0.9310302734375,0.2906494140625,0.0067138671875,0.732421875,-1.03759765625,1.708984375
252660.969276666,0.9310302734375,0.2906494140625,0.0067138671875,0.732421875,-1.03759765625,2.3193359375
252660.977320291,0.9342041015625,0.2906494140625,0.0067138671875,0.732421875,-1.03759765625,2.3193359375
252660.977446375,0.9342041015625,0.282958984375,0.0067138671875,0.732421875,-1.03759765625,2.3193359375
252660.978220125,0.9342041015625,0.282958984375,0.0125732421875,0.732421875,-1.03759765625,2.3193359375
252660.992363041,0.9342041015625,0.282958984375,0.0125732421875,0.732421875,-0.8544921875,2.3193359375
252660.992452416,0.9342041015625,0.282958984375,0.0125732421875,0.732421875,-0.8544921875,2.25830078125
252661.007017083,0.9339599609375,0.282958984375,0.0125732421875,0.732421875,-0.8544921875,2.25830078125
252661.007276958,0.9339599609375,0.2806396484375,0.0125732421875,0.732421875,-0.8544921875,2.25830078125
252661.008329125,0.9339599609375,0.2806396484375,0.01171875,0.732421875,-0.8544921875,2.25830078125
252661.022158458,0.9339599609375,0.2806396484375,0.01171875,0.732421875,-0.67138671875,2.25830078125
252661.022259,0.9339599609375,0.2806396484375,0.01171875,0.732421875,-0.67138671875,1.77001953125
252661.037025958,0.9271240234375,0.2806396484375,0.01171875,0.732421875,-0.67138671875,1.77001953125
252661.037128,0.9271240234375,0.28125,0.01171875,0.732421875,-0.67138671875,1.77001953125
252661.037186833,0.9271240234375,0.28125,0.00732421875,0.732421875,-0.67138671875,1.77001953125
252661.053349041,0.9271240234375,0.28125,0.00732421875,0.732421875,-1.0986328125,1.77001953125
252661.053465666,0.9271240234375,0.28125,0.00732421875,0.732421875,-1.0986328125,1.03759765625
252661.0821245,0.9267578125,0.28125,0.00732421875,0.732421875,-1.0986328125,1.03759765625
252661.08221,0.9267578125,0.2861328125,0.00732421875,0.732421875,-1.0986328125,1.03759765625
252661.083608208,0.9267578125,0.2861328125,0.010009765625,0.732421875,-1.0986328125,1.03759765625
252661.083674166,0.9267578125,0.2861328125,0.010009765625,0.732421875,-0.91552734375,1.03759765625
252661.100652291,0.9271240234375,0.2861328125,0.010009765625,0.732421875,-0.91552734375,1.03759765625
252661.100691166,0.9271240234375,0.294677734375,0.010009765625,0.732421875,-0.91552734375,1.03759765625
252661.100723083,0.9271240234375,0.294677734375,0.005615234375,0.732421875,-0.91552734375,1.03759765625
252661.117543458,0.9271240234375,0.294677734375,0.005615234375,0.732421875,-0.6103515625,1.03759765625
252661.117582041,0.9271240234375,0.294677734375,0.005615234375,0.732421875,-0.6103515625,1.03759765625
252661.127566375,0.931396484375,0.294677734375,0.005615234375,0.732421875,-0.6103515625,1.03759765625
252661.134366666,0.931396484375,0.2989501953125,0.005615234375,0.732421875,-0.6103515625,1.03759765625
252661.134451083,0.931396484375,0.2989501953125,0.0067138671875,0.732421875,-0.6103515625,1.03759765625
252661.142109333,0.931396484375,0.2989501953125,0.0067138671875,0.732421875,-0.6103515625,1.03759765625
252661.142192708,0.931396484375,0.2989501953125,0.0067138671875,0.732421875,-0.6103515625,1.40380859375
252661.156739625,0.9453125,0.2989501953125,0.0067138671875,0.732421875,-0.6103515625,1.40380859375
252661.156838083,0.9453125,0.3057861328125,0.0067138671875,0.732421875,-0.6103515625,1.40380859375
252661.157550125,0.9453125,0.3057861328125,0.0225830078125,0.732421875,-0.6103515625,1.40380859375
252661.1719695,0.9453125,0.3057861328125,0.0225830078125,0.732421875,-0.18310546875,1.40380859375
252661.172071208,0.9453125,0.3057861328125,0.0225830078125,0.732421875,-0.18310546875,1.953125
252661.186666333,0.9481201171875,0.3057861328125,0.0225830078125,0.732421875,-0.18310546875,1.953125
252661.186743541,0.9481201171875,0.3089599609375,0.0225830078125,0.732421875,-0.18310546875,1.953125
252661.187569416,0.9481201171875,0.3089599609375,0.03955078125,0.732421875,-0.18310546875,1.953125
252661.216824708,0.9481201171875,0.3089599609375,0.03955078125,0.732421875,-0.8544921875,1.953125
252661.216868458,0.9481201171875,0.3089599609375,0.03955078125,0.732421875,-0.8544921875,1.953125
252661.217779916,0.9964599609375,0.3089599609375,0.03955078125,0.732421875,-0.8544921875,1.953125
252661.2340425,0.9964599609375,0.3089599609375,0.1036376953125,0.732421875,-0.8544921875,1.953125
252661.234083875,0.9964599609375,0.3089599609375,0.1036376953125,5.9814453125,-0.8544921875,1.953125
252661.234119458,0.9964599609375,0.3089599609375,0.1036376953125,5.9814453125,-0.6103515625,1.953125
252661.250920166,1.040771484375,0.3089599609375,0.1036376953125,5.9814453125,-0.6103515625,1.953125
252661.250977875,1.040771484375,0.334716796875,0.1036376953125,5.9814453125,-0.6103515625,1.953125
252661.251012958,1.040771484375,0.334716796875,0.2698974609375,5.9814453125,-0.6103515625,1.953125
252661.267184166,1.040771484375,0.334716796875,0.2698974609375,5.9814453125,-1.77001953125,1.953125
252661.267227291,1.040771484375,0.334716796875,0.2698974609375,5.9814453125,-1.77001953125,8.4228515625
252661.276883291,1.03515625,0.334716796875,0.2698974609375,5.9814453125,-1.77001953125,8.4228515625
252661.283828666,1.03515625,0.30859375,0.2698974609375,5.9814453125,-1.77001953125,8.4228515625
252661.283869375,1.03515625,0.30859375,0.362548828125,5.9814453125,-1.77001953125,8.4228515625
252661.293041958,1.03515625,0.30859375,0.362548828125,5.9814453125,-10.6201171875,8.4228515625
252661.293113291,1.03515625,0.30859375,0.362548828125,5.9814453125,-10.6201171875,20.751953125
252661.321705583,1.092529296875,0.30859375,0.362548828125,5.9814453125,-10.6201171875,20.751953125
252661.323541708,1.092529296875,0.1878662109375,0.362548828125,5.9814453125,-10.6201171875,20.751953125
252661.323632166,1.092529296875,0.1878662109375,0.5836181640625,5.9814453125,-10.6201171875,20.751953125
252661.337399333,1.092529296875,0.1878662109375,0.5836181640625,5.9814453125,-24.7802734375,20.751953125
252661.337506375,1.092529296875,0.1878662109375,0.5836181640625,5.9814453125,-24.7802734375,27.587890625
252661.366770791,1.1309814453125,0.1878662109375,0.5836181640625,5.9814453125,-24.7802734375,27.587890625
252661.366891458,1.1309814453125,0.27685546875,0.5836181640625,5.9814453125,-24.7802734375,27.587890625
252661.367637708,1.1309814453125,0.27685546875,0.6209716796875,5.9814453125,-24.7802734375,27.587890625
252661.381911875,1.1309814453125,0.27685546875,0.6209716796875,-10.986328125,-24.7802734375,27.587890625
252661.382025833,1.1689453125,0.27685546875,0.6209716796875,-10.986328125,-24.7802734375,27.587890625
252661.3835235,1.1689453125,0.4090576171875,0.6209716796875,-10.986328125,-24.7802734375,27.587890625
252661.383628041,1.1689453125,0.4090576171875,0.587890625,-10.986328125,-24.7802734375,27.587890625
252661.401067583,1.1689453125,0.4090576171875,0.587890625,-10.986328125,-73.73046875,27.587890625
252661.401121916,1.1689453125,0.4090576171875,0.587890625,-10.986328125,-73.73046875,21.3623046875
252661.427052125,1.252685546875,0.4090576171875,0.587890625,-10.986328125,-73.73046875,21.3623046875
252661.427184291,1.252685546875,0.5030517578125,0.587890625,-10.986328125,-73.73046875,21.3623046875
252661.434186958,1.252685546875,0.5030517578125,0.5948486328125,-10.986328125,-73.73046875,21.3623046875
252661.4342325,1.252685546875,0.5030517578125,0.5948486328125,13.85498046875,-73.73046875,21.3623046875
252661.455930166,1.2862548828125,0.5030517578125,0.5948486328125,13.85498046875,-73.73046875,21.3623046875
252661.456621083,1.2862548828125,0.52587890625,0.5948486328125,13.85498046875,-73.73046875,21.3623046875
252661.457854041,1.2862548828125,0.52587890625,0.5948486328125,13.85498046875,-73.73046875,21.3623046875
252661.487404791,1.2862548828125,0.52587890625,0.5948486328125,13.85498046875,-93.8720703125,21.3623046875
252661.487542125,1.2862548828125,0.52587890625,0.5948486328125,13.85498046875,-93.8720703125,37.78076171875
252661.501729666,1.24462890625,0.52587890625,0.5948486328125,13.85498046875,-93.8720703125,37.78076171875
252661.501862791,1.24462890625,0.478759765625,0.5948486328125,13.85498046875,-93.8720703125,37.78076171875
252661.501936791,1.24462890625,0.478759765625,0.663330078125,13.85498046875,-93.8720703125,37.78076171875
252661.517638,1.24462890625,0.478759765625,0.663330078125,13.85498046875,-93.8720703125,42.3583984375
252661.546669208,1.2496337890625,0.478759765625,0.663330078125,13.85498046875,-93.8720703125,42.3583984375
252661.546811583,1.2496337890625,0.5631103515625,0.663330078125,13.85498046875,-93.8720703125,42.3583984375
252661.547530916,1.2496337890625,0.5631103515625,0.762451171875,13.85498046875,-93.8720703125,42.3583984375
252661.547620375,1.2496337890625,0.5631103515625,0.762451171875,13.85498046875,-126.52587890625,42.3583984375
252661.576694208,1.2161865234375,0.5631103515625,0.762451171875,13.85498046875,-126.52587890625,42.3583984375
252661.584553291,1.2161865234375,0.6568603515625,0.762451171875,13.85498046875,-126.52587890625,42.3583984375
252661.584613041,1.2161865234375,0.6568603515625,0.708740234375,13.85498046875,-126.52587890625,42.3583984375
252661.591894666,1.2161865234375,0.6568603515625,0.708740234375,13.85498046875,-137.75634765625,42.3583984375
252661.591996958,1.2161865234375,0.6568603515625,0.708740234375,13.85498046875,-137.75634765625,32.28759765625
252661.622221666,1.1907958984375,0.6568603515625,0.708740234375,13.85498046875,-137.75634765625,32.28759765625
252661.624643625,1.1907958984375,0.738037109375,0.708740234375,13.85498046875,-137.75634765625,32.28759765625
252661.624701791,1.1907958984375,0.738037109375,0.7274169921875,13.85498046875,-137.75634765625,32.28759765625
252661.63804075,1.1907958984375,0.738037109375,0.7274169921875,84.65576171875,-137.75634765625,32.28759765625
252661.638114708,1.1243896484375,0.738037109375,0.7274169921875,84.65576171875,-137.75634765625,32.28759765625
252661.638251,1.1243896484375,0.7200927734375,0.7274169921875,84.65576171875,-137.75634765625,32.28759765625
252661.667687041,1.1243896484375,0.7200927734375,0.7274169921875,95.15380859375,-137.75634765625,32.28759765625
252661.66774975,1.1243896484375,0.7200927734375,0.7274169921875,95.15380859375,-145.3857421875,32.28759765625
252661.667790666,1.1243896484375,0.7200927734375,0.7274169921875,95.15380859375,-145.3857421875,33.5693359375
252661.6842575,0.958251953125,0.7200927734375,0.7274169921875,95.15380859375,-145.3857421875,33.5693359375
252661.684298541,0.958251953125,0.6575927734375,0.7274169921875,95.15380859375,-145.3857421875,33.5693359375
252661.684404375,0.958251953125,0.6575927734375,0.689208984375,95.15380859375,-145.3857421875,33.5693359375
252661.684457333,0.958251953125,0.6575927734375,0.689208984375,100.341796875,-145.3857421875,33.5693359375
252661.711409791,0.8619384765625,0.6575927734375,0.689208984375,100.341796875,-145.3857421875,33.5693359375
252661.711447291,0.8619384765625,0.621826171875,0.689208984375,100.341796875,-145.3857421875,33.5693359375
252661.726982916,0.8619384765625,0.621826171875,0.654296875,100.341796875,-145.3857421875,33.5693359375
252661.727076166,0.8619384765625,0.621826171875,0.654296875,103.759765625,-145.3857421875,33.5693359375
252661.727106791,0.7606201171875,0.621826171875,0.654296875,103.759765625,-145.3857421875,33.5693359375
252661.7277705,0.7606201171875,0.598388671875,0.654296875,103.759765625,-145.3857421875,33.5693359375
252661.771890583,0.7606201171875,0.598388671875,0.654296875,110.4736328125,-145.3857421875,33.5693359375
252661.771927291,0.7606201171875,0.598388671875,0.654296875,110.4736328125,-141.9677734375,33.5693359375
252661.783806875,0.7606201171875,0.598388671875,0.654296875,110.4736328125,-141.9677734375,31.55517578125
252661.783841958,0.6395263671875,0.598388671875,0.654296875,110.4736328125,-141.9677734375,31.55517578125
252661.801625916,0.6395263671875,0.598388671875,0.654296875,123.96240234375,-141.9677734375,31.55517578125
252661.801702458,0.6395263671875,0.598388671875,0.654296875,123.96240234375,-137.939453125,31.55517578125
252661.803064166,0.6395263671875,0.598388671875,0.654296875,123.96240234375,-137.939453125,26.85546875
252661.818214,0.40625,0.598388671875,0.654296875,123.96240234375,-137.939453125,26.85546875
252661.818314166,0.40625,0.3399658203125,0.654296875,123.96240234375,-137.939453125,26.85546875
252661.818348041,0.40625,0.3399658203125,0.4324951171875,123.96240234375,-137.939453125,26.85546875
252661.833757666,0.40625,0.3399658203125,0.4324951171875,123.96240234375,-137.939453125,18.310546875
252661.861491083,0.212158203125,0.3399658203125,0.4324951171875,123.96240234375,-137.939453125,18.310546875
252661.867308083,0.212158203125,0.234130859375,0.4324951171875,123.96240234375,-137.939453125,18.310546875
252661.867353375,0.212158203125,0.234130859375,0.2994384765625,123.96240234375,-137.939453125,18.310546875
252661.867395416,0.212158203125,0.234130859375,0.2994384765625,69.2138671875,-137.939453125,18.310546875
252661.876792291,0.09375,0.234130859375,0.2994384765625,69.2138671875,-137.939453125,18.310546875
252661.876933333,0.09375,0.2005615234375,0.2994384765625,69.2138671875,-137.939453125,18.310546875
252661.87700875,0.09375,0.2005615234375,0.21337890625,69.2138671875,-137.939453125,18.310546875
252661.891747208,0.09375,0.2005615234375,0.21337890625,69.2138671875,-133.23974609375,18.310546875
252661.891868541,0.09375,0.2005615234375,0.21337890625,69.2138671875,-133.23974609375,16.29638671875
252661.906761666,-0.070556640625,0.2005615234375,0.21337890625,69.2138671875,-133.23974609375,16.29638671875
252661.906907083,-0.070556640625,0.0220947265625,0.21337890625,69.2138671875,-133.23974609375,16.29638671875
252661.906967666,-0.070556640625,0.0220947265625,0.0206298828125,69.2138671875,-133.23974609375,16.29638671875
252661.921751916,-0.070556640625,0.0220947265625,0.0206298828125,69.2138671875,-119.5068359375,16.29638671875
252661.921868125,-0.070556640625,0.0220947265625,0.0206298828125,69.2138671875,-119.5068359375,16.29638671875
252661.966665416,-0.227294921875,0.0220947265625,0.0206298828125,69.2138671875,-119.5068359375,16.29638671875
252661.969135375,-0.227294921875,-0.1151123046875,0.0206298828125,69.2138671875,-119.5068359375,16.29638671875
252661.969317291,-0.227294921875,-0.1151123046875,0.0086669921875,69.2138671875,-119.5068359375,16.29638671875
252661.969373833,-0.227294921875,-0.1151123046875,0.0086669921875,28.50341796875,-119.5068359375,16.29638671875
252661.984557333,-0.2791748046875,-0.1151123046875,0.0086669921875,28.50341796875,-119.5068359375,16.29638671875
252661.984621,-0.2791748046875,-0.1297607421875,0.0086669921875,28.50341796875,-119.5068359375,16.29638671875
252661.984675875,-0.2791748046875,-0.1297607421875,0.005615234375,28.50341796875,-119.5068359375,16.29638671875
252662.001202,-0.2791748046875,-0.1297607421875,0.005615234375,28.50341796875,-74.0966796875,16.29638671875
252662.001264791,-0.2791748046875,-0.1297607421875,0.005615234375,28.50341796875,-74.0966796875,17.51708984375
252662.042010833,-0.3270263671875,-0.1297607421875,0.005615234375,28.50341796875,-74.0966796875,17.51708984375
252662.042161791,-0.3270263671875,-0.18505859375,0.005615234375,28.50341796875,-74.0966796875,17.51708984375
252662.042888208,-0.3270263671875,-0.18505859375,-0.0565185546875,28.50341796875,-74.0966796875,17.51708984375
252662.072235833,-0.3270263671875,-0.18505859375,-0.0565185546875,-18.98193359375,-74.0966796875,17.51708984375
252662.072400666,-0.3433837890625,-0.18505859375,-0.0565185546875,-18.98193359375,-74.0966796875,17.51708984375
252662.07408325,-0.3433837890625,-0.2562255859375,-0.0565185546875,-18.98193359375,-74.0966796875,17.51708984375
252662.074249041,-0.3433837890625,-0.2562255859375,-0.002685546875,-18.98193359375,-74.0966796875,17.51708984375
252662.102022583,-0.3433837890625,-0.2562255859375,-0.002685546875,-18.98193359375,-8.11767578125,17.51708984375
252662.11847125,-0.3433837890625,-0.2562255859375,-0.002685546875,-18.98193359375,-8.11767578125,9.521484375
252662.118752916,-0.2095947265625,-0.2562255859375,-0.002685546875,-18.98193359375,-8.11767578125,9.521484375
252662.118816458,-0.2095947265625,-0.09033203125,-0.002685546875,-18.98193359375,-8.11767578125,9.521484375
252662.118876083,-0.2095947265625,-0.09033203125,0.1014404296875,-18.98193359375,-8.11767578125,9.521484375
252662.135302,-0.2095947265625,-0.09033203125,0.1014404296875,-18.98193359375,-8.11767578125,-8.056640625
252662.162304166,-0.117431640625,-0.09033203125,0.1014404296875,-18.98193359375,-8.11767578125,-8.056640625
252662.1682255,-0.117431640625,0.0517578125,0.1014404296875,-18.98193359375,-8.11767578125,-8.056640625
252662.168301208,-0.117431640625,0.0517578125,0.2510986328125,-18.98193359375,-8.11767578125,-8.056640625
252662.168367208,-0.117431640625,0.0517578125,0.2510986328125,-18.98193359375,79.89501953125,-8.056640625
252662.177032625,-0.0084228515625,0.0517578125,0.2510986328125,-18.98193359375,79.89501953125,-8.056640625
252662.177209791,-0.0084228515625,0.2608642578125,0.2510986328125,-18.98193359375,79.89501953125,-8.056640625
252662.191944166,-0.0084228515625,0.2608642578125,0.4237060546875,-18.98193359375,79.89501953125,-8.056640625
252662.192148666,-0.0084228515625,0.2608642578125,0.4237060546875,-18.98193359375,101.5625,-8.056640625
252662.192212875,-0.0084228515625,0.2608642578125,0.4237060546875,-18.98193359375,101.5625,-22.15576171875
252662.206914291,0.110595703125,0.2608642578125,0.4237060546875,-18.98193359375,101.5625,-22.15576171875
252662.207106041,0.110595703125,0.269775390625,0.4237060546875,-18.98193359375,101.5625,-22.15576171875
252662.207200416,0.110595703125,0.269775390625,0.5067138671875,-18.98193359375,101.5625,-22.15576171875
252662.221880291,0.110595703125,0.269775390625,0.5067138671875,-18.98193359375,119.5068359375,-22.15576171875
252662.222034,0.110595703125,0.269775390625,0.5067138671875,-18.98193359375,119.5068359375,-29.35791015625
252662.26648075,0.2596435546875,0.269775390625,0.5067138671875,-18.98193359375,119.5068359375,-29.35791015625
252662.271217,0.2596435546875,0.3677978515625,0.5067138671875,-18.98193359375,119.5068359375,-29.35791015625
252662.271318416,0.2596435546875,0.3677978515625,0.6322021484375,-18.98193359375,119.5068359375,-29.35791015625
252662.2714185,0.2596435546875,0.3677978515625,0.6322021484375,-81.97021484375,119.5068359375,-29.35791015625
252662.281927416,0.382080078125,0.3677978515625,0.6322021484375,-81.97021484375,119.5068359375,-29.35791015625
252662.285675625,0.382080078125,0.5360107421875,0.6322021484375,-81.97021484375,119.5068359375,-29.35791015625
252662.285818916,0.382080078125,0.5360107421875,0.79248046875,-81.97021484375,119.5068359375,-29.35791015625
252662.302824125,0.382080078125,0.5360107421875,0.79248046875,-81.97021484375,129.69970703125,-29.35791015625
252662.302919291,0.382080078125,0.5360107421875,0.79248046875,-81.97021484375,129.69970703125,-31.43310546875
252662.3121985,0.4571533203125,0.5360107421875,0.79248046875,-81.97021484375,129.69970703125,-31.43310546875
252662.312415166,0.4571533203125,0.5601806640625,0.79248046875,-81.97021484375,129.69970703125,-31.43310546875
252662.319246333,0.4571533203125,0.5601806640625,0.775146484375,-81.97021484375,129.69970703125,-31.43310546875
252662.327172458,0.4571533203125,0.5601806640625,0.775146484375,-81.97021484375,134.3994140625,-31.43310546875
252662.327349916,0.4571533203125,0.5601806640625,0.775146484375,-81.97021484375,134.3994140625,-29.052734375
252662.342594125,0.5970458984375,0.5601806640625,0.775146484375,-81.97021484375,134.3994140625,-29.052734375
252662.342861791,0.5970458984375,0.552490234375,0.775146484375,-81.97021484375,134.3994140625,-29.052734375
252662.342974625,0.5970458984375,0.552490234375,0.778076171875,-81.97021484375,134.3994140625,-29.052734375
252662.372124875,0.5970458984375,0.552490234375,0.778076171875,-81.97021484375,138.7939453125,-29.052734375
252662.372300291,0.5970458984375,0.552490234375,0.778076171875,-81.97021484375,138.7939453125,-29.72412109375
252662.372727208,0.703125,0.552490234375,0.778076171875,-81.97021484375,138.7939453125,-29.72412109375
252662.402332333,0.703125,0.552490234375,0.7615966796875,-81.97021484375,138.7939453125,-29.72412109375
252662.40258425,0.703125,0.552490234375,0.7615966796875,-91.61376953125,138.7939453125,-29.72412109375
252662.4027035,0.703125,0.552490234375,0.7615966796875,-91.61376953125,133.48388671875,-29.72412109375
252662.403025041,0.8153076171875,0.552490234375,0.7615966796875,-91.61376953125,133.48388671875,-29.72412109375
252662.41692775,0.8153076171875,0.552490234375,0.60009765625,-91.61376953125,133.48388671875,-29.72412109375
252662.417125291,0.8153076171875,0.552490234375,0.60009765625,-107.666015625,133.48388671875,-29.72412109375
252662.417234375,0.8153076171875,0.552490234375,0.60009765625,-107.666015625,128.41796875,-29.72412109375
252662.43520225,0.9061279296875,0.552490234375,0.60009765625,-107.666015625,128.41796875,-29.72412109375
252662.435275125,0.9061279296875,0.77392578125,0.60009765625,-107.666015625,128.41796875,-29.72412109375
252662.435338291,0.9061279296875,0.77392578125,0.7744140625,-107.666015625,128.41796875,-29.72412109375
252662.452349,0.9061279296875,0.77392578125,0.7744140625,-107.666015625,126.8310546875,-29.72412109375
252662.452422708,0.9061279296875,0.77392578125,0.7744140625,-107.666015625,126.8310546875,-39.73388671875
252662.477542833,0.9508056640625,0.77392578125,0.7744140625,-107.666015625,126.8310546875,-39.73388671875
252662.477770666,0.9508056640625,0.6705322265625,0.7744140625,-107.666015625,126.8310546875,-39.73388671875
252662.477846375,0.9508056640625,0.6705322265625,0.514404296875,-107.666015625,126.8310546875,-39.73388671875
252662.492390041,0.9508056640625,0.6705322265625,0.514404296875,-107.666015625,121.52099609375,-39.73388671875
252662.492616791,1.00537109375,0.6705322265625,0.514404296875,-107.666015625,121.52099609375,-39.73388671875
252662.492710791,1.00537109375,0.7286376953125,0.514404296875,-107.666015625,121.52099609375,-39.73388671875
252662.492972791,1.00537109375,0.7286376953125,0.6905517578125,-107.666015625,121.52099609375,-39.73388671875
252662.507773916,1.00537109375,0.7286376953125,0.6905517578125,-107.666015625,122.00927734375,-39.73388671875
252662.5078545,1.00537109375,0.7286376953125,0.6905517578125,-107.666015625,122.00927734375,-43.0908203125
252662.536862458,1.0067138671875,0.7286376953125,0.6905517578125,-107.666015625,122.00927734375,-43.0908203125
252662.537030333,1.0067138671875,0.8001708984375,0.6905517578125,-107.666015625,122.00927734375,-43.0908203125
252662.537759208,1.0067138671875,0.8001708984375,0.823486328125,-107.666015625,122.00927734375,-43.0908203125
252662.537914833,1.0067138671875,0.8001708984375,0.823486328125,-57.373046875,122.00927734375,-43.0908203125
252662.56605925,1.1337890625,0.8001708984375,0.823486328125,-57.373046875,122.00927734375,-43.0908203125
252662.567696958,1.1337890625,0.70703125,0.823486328125,-57.373046875,122.00927734375,-43.0908203125
252662.56786125,1.1337890625,0.70703125,0.7227783203125,-57.373046875,122.00927734375,-43.0908203125
252662.582170875,1.1337890625,0.70703125,0.7227783203125,-21.97265625,122.00927734375,-43.0908203125
252662.58242725,1.0616455078125,0.70703125,0.7227783203125,-21.97265625,122.00927734375,-43.0908203125
252662.582536875,1.0616455078125,0.6954345703125,0.7227783203125,-21.97265625,122.00927734375,-43.0908203125
252662.582970958,1.0616455078125,0.6954345703125,0.73046875,-21.97265625,122.00927734375,-43.0908203125
252662.602060041,1.0616455078125,0.6954345703125,0.73046875,-21.97265625,95.76416015625,-43.0908203125
252662.60213775,1.0616455078125,0.6954345703125,0.73046875,-21.97265625,95.76416015625,-31.982421875
252662.626898458,1.0540771484375,0.6954345703125,0.73046875,-21.97265625,95.76416015625,-31.982421875
252662.627042,1.0540771484375,0.7100830078125,0.73046875,-21.97265625,95.76416015625,-31.982421875
252662.6276435,1.0540771484375,0.7100830078125,0.742919921875,-21.97265625,95.76416015625,-31.982421875
252662.672261166,1.0540771484375,0.7100830078125,0.742919921875,-21.97265625,82.51953125,-31.982421875
252662.672475541,1.0540771484375,0.7100830078125,0.742919921875,-21.97265625,82.51953125,-15.07568359375
252662.702815916,0.9984130859375,0.7100830078125,0.742919921875,-21.97265625,82.51953125,-15.07568359375
252662.702933916,0.9984130859375,0.5394287109375,0.742919921875,-21.97265625,82.51953125,-15.07568359375
252662.703194583,0.9984130859375,0.5394287109375,0.742919921875,-21.97265625,60.36376953125,-15.07568359375
252662.703404625,0.9984130859375,0.5394287109375,0.742919921875,-21.97265625,60.36376953125,-5.67626953125
252662.717833083,0.9345703125,0.5394287109375,0.742919921875,-21.97265625,60.36376953125,-5.67626953125
252662.717883833,0.9345703125,0.64697265625,0.742919921875,-21.97265625,60.36376953125,-5.67626953125
252662.746457583,0.9345703125,0.64697265625,0.4588623046875,-21.97265625,60.36376953125,-5.67626953125
252662.746566375,0.9345703125,0.64697265625,0.4588623046875,-21.97265625,60.36376953125,-1.8310546875
252662.77578125,0.9461669921875,0.64697265625,0.4588623046875,-21.97265625,60.36376953125,-1.8310546875
252662.776747791,0.9461669921875,0.54833984375,0.4588623046875,-21.97265625,60.36376953125,-1.8310546875
252662.776837875,0.9461669921875,0.54833984375,0.3758544921875,-21.97265625,60.36376953125,-1.8310546875
252662.777866708,0.9461669921875,0.54833984375,0.3758544921875,-21.97265625,60.36376953125,-0.42724609375
252662.791685916,0.9271240234375,0.54833984375,0.3758544921875,-21.97265625,60.36376953125,-0.42724609375
252662.791780333,0.9271240234375,0.484375,0.3758544921875,-21.97265625,60.36376953125,-0.42724609375
252662.791839541,0.9271240234375,0.484375,0.36279296875,-21.97265625,60.36376953125,-0.42724609375
252662.806761333,0.9271240234375,0.484375,0.36279296875,-21.97265625,29.72412109375,-0.42724609375
252662.806795416,0.9271240234375,0.484375,0.36279296875,-21.97265625,29.72412109375,3.96728515625
252662.834141958,0.969482421875,0.484375,0.36279296875,-21.97265625,29.72412109375,3.96728515625
252662.834177916,0.969482421875,0.5474853515625,0.36279296875,-21.97265625,29.72412109375,3.96728515625
252662.834208916,0.969482421875,0.5474853515625,0.4222412109375,-21.97265625,29.72412109375,3.96728515625
252662.836701375,0.969482421875,0.5474853515625,0.4222412109375,-21.97265625,20.32470703125,3.96728515625
252662.836733166,0.969482421875,0.5474853515625,0.4222412109375,-21.97265625,20.32470703125,7.38525390625
252662.872920625,0.8692626953125,0.5474853515625,0.4222412109375,-21.97265625,20.32470703125,7.38525390625
252662.875410541,0.8692626953125,0.553466796875,0.4222412109375,-21.97265625,20.32470703125,7.38525390625
252662.875498416,0.8692626953125,0.553466796875,0.32177734375,-21.97265625,20.32470703125,7.38525390625
252662.875542083,0.8692626953125,0.553466796875,0.32177734375,-9.27734375,20.32470703125,7.38525390625
252662.881672166,0.875,0.553466796875,0.32177734375,-9.27734375,20.32470703125,7.38525390625
252662.881787416,0.875,0.503662109375,0.32177734375,-9.27734375,20.32470703125,7.38525390625
252662.881852041,0.875,0.503662109375,0.335693359375,-9.27734375,20.32470703125,7.38525390625
252662.901126208,0.875,0.503662109375,0.335693359375,-9.27734375,9.94873046875,7.38525390625
252662.901174625,0.875,0.503662109375,0.335693359375,-9.27734375,9.94873046875,8.056640625
252662.926681958,0.8992919921875,0.503662109375,0.335693359375,-9.27734375,9.94873046875,8.056640625
252662.926794208,0.8992919921875,0.4613037109375,0.335693359375,-9.27734375,9.94873046875,8.056640625
252662.927669666,0.8992919921875,0.4613037109375,0.342041015625,-9.27734375,9.94873046875,8.056640625
252662.927782,0.8992919921875,0.4613037109375,0.342041015625,-0.30517578125,9.94873046875,8.056640625
252662.941828791,0.904296875,0.4613037109375,0.342041015625,-0.30517578125,9.94873046875,8.056640625
252662.941962333,0.904296875,0.51904296875,0.342041015625,-0.30517578125,9.94873046875,8.056640625
252662.942036291,0.904296875,0.51904296875,0.3775634765625,-0.30517578125,9.94873046875,8.056640625
252662.971694666,0.904296875,0.51904296875,0.3775634765625,-0.30517578125,-16.845703125,8.056640625
252662.971830666,0.904296875,0.51904296875,0.3775634765625,-0.30517578125,-16.845703125,4.0283203125
252662.984324958,0.952880859375,0.51904296875,0.3775634765625,-0.30517578125,-16.845703125,4.0283203125
NEW_REP,,,,,,
252663.001991541,0.952880859375,0.51904296875,0.4443359375,-0.30517578125,-16.845703125,4.0283203125
252663.002114875,0.952880859375,0.51904296875,0.4443359375,-3.60107421875,-16.845703125,4.0283203125
252663.00218525,0.952880859375,0.51904296875,0.4443359375,-3.60107421875,-23.74267578125,4.0283203125
252663.002897708,1.021728515625,0.51904296875,0.4443359375,-3.60107421875,-23.74267578125,4.0283203125
252663.018093333,1.021728515625,0.51904296875,0.588623046875,-3.60107421875,-23.74267578125,4.0283203125
252663.018144666,1.021728515625,0.51904296875,0.588623046875,7.87353515625,-23.74267578125,4.0283203125
252663.018187958,1.021728515625,0.51904296875,0.588623046875,7.87353515625,-32.5927734375,4.0283203125
252663.046636541,1.0797119140625,0.51904296875,0.588623046875,7.87353515625,-32.5927734375,4.0283203125
252663.046775875,1.0797119140625,0.637451171875,0.588623046875,7.87353515625,-32.5927734375,4.0283203125
252663.047576041,1.0797119140625,0.637451171875,0.7021484375,7.87353515625,-32.5927734375,4.0283203125
252663.047680875,1.0797119140625,0.637451171875,0.7021484375,7.87353515625,-45.22705078125,4.0283203125
252663.061765958,1.1328125,0.637451171875,0.7021484375,7.87353515625,-45.22705078125,4.0283203125
252663.061875208,1.1328125,0.6063232421875,0.7021484375,7.87353515625,-45.22705078125,4.0283203125
252663.076905,1.1328125,0.6063232421875,0.7872314453125,7.87353515625,-45.22705078125,4.0283203125
252663.077062041,1.1328125,0.6063232421875,0.7872314453125,7.87353515625,-59.5703125,4.0283203125
252663.077142666,1.1328125,0.6063232421875,0.7872314453125,7.87353515625,-59.5703125,7.32421875
252663.10856775,1.1796875,0.6063232421875,0.7872314453125,7.87353515625,-59.5703125,7.32421875
252663.108830291,1.1796875,0.6068115234375,0.7872314453125,7.87353515625,-59.5703125,7.32421875
252663.108938916,1.1796875,0.6068115234375,0.7957763671875,7.87353515625,-59.5703125,7.32421875
252663.122303375,1.1796875,0.6068115234375,0.7957763671875,42.1142578125,-59.5703125,7.32421875
252663.1224225,1.1956787109375,0.6068115234375,0.7957763671875,42.1142578125,-59.5703125,7.32421875
252663.122487708,1.1956787109375,0.637451171875,0.7957763671875,42.1142578125,-59.5703125,7.32421875
252663.122733625,1.1956787109375,0.637451171875,0.7454833984375,42.1142578125,-59.5703125,7.32421875
252663.151591333,1.1956787109375,0.637451171875,0.7454833984375,42.1142578125,-95.76416015625,7.32421875
252663.151721291,1.1956787109375,0.637451171875,0.7454833984375,42.1142578125,-95.76416015625,6.04248046875
252663.18084025,1.182373046875,0.637451171875,0.7454833984375,42.1142578125,-95.76416015625,6.04248046875
252663.18241875,1.182373046875,0.64892578125,0.7454833984375,42.1142578125,-95.76416015625,6.04248046875
252663.182543041,1.182373046875,0.64892578125,0.6861572265625,42.1142578125,-95.76416015625,6.04248046875
252663.196867541,1.1728515625,0.64892578125,0.6861572265625,42.1142578125,-95.76416015625,6.04248046875
252663.196999458,1.1728515625,0.709716796875,0.6861572265625,42.1142578125,-95.76416015625,6.04248046875
252663.197073916,1.1728515625,0.709716796875,0.68017578125,42.1142578125,-95.76416015625,6.04248046875
252663.211867875,1.1728515625,0.709716796875,0.68017578125,42.1142578125,-95.76416015625,2.197265625
252663.234692791,1.1466064453125,0.709716796875,0.68017578125,42.1142578125,-95.76416015625,2.197265625
252663.234743625,1.1466064453125,0.716552734375,0.68017578125,42.1142578125,-95.76416015625,2.197265625
252663.234785916,1.1466064453125,0.716552734375,0.6834716796875,42.1142578125,-95.76416015625,2.197265625
252663.241886375,1.1466064453125,0.716552734375,0.6834716796875,42.1142578125,-131.591796875,2.197265625
252663.242158833,1.1466064453125,0.716552734375,0.6834716796875,42.1142578125,-131.591796875,0.0
252663.272560791,1.0947265625,0.716552734375,0.6834716796875,42.1142578125,-131.591796875,0.0
252663.272676291,1.0947265625,0.66015625,0.6834716796875,42.1142578125,-131.591796875,0.0
252663.275487833,1.0947265625,0.66015625,0.683349609375,42.1142578125,-131.591796875,0.0
252663.289191541,1.0947265625,0.66015625,0.683349609375,42.1142578125,-137.51220703125,0.0
252663.289252125,1.0947265625,0.66015625,0.683349609375,42.1142578125,-137.51220703125,1.15966796875
252663.318018333,0.9627685546875,0.66015625,0.683349609375,42.1142578125,-137.51220703125,1.15966796875
252663.318587541,0.9627685546875,0.7198486328125,0.683349609375,42.1142578125,-137.51220703125,1.15966796875
252663.318684083,0.9627685546875,0.7198486328125,0.7239990234375,42.1142578125,-137.51220703125,1.15966796875
252663.334881541,0.9627685546875,0.7198486328125,0.7239990234375,42.1142578125,-134.94873046875,1.15966796875
252663.334934583,0.9627685546875,0.7198486328125,0.7239990234375,42.1142578125,-134.94873046875,9.09423828125
252663.360892291,0.8272705078125,0.7198486328125,0.7239990234375,42.1142578125,-134.94873046875,9.09423828125
252663.377149125,0.8272705078125,0.5531005859375,0.7239990234375,42.1142578125,-134.94873046875,9.09423828125
252663.377287375,0.8272705078125,0.5531005859375,0.599365234375,42.1142578125,-134.94873046875,9.09423828125
252663.377364041,0.8272705078125,0.5531005859375,0.599365234375,138.61083984375,-134.94873046875,9.09423828125
252663.384291791,0.7213134765625,0.5531005859375,0.599365234375,138.61083984375,-134.94873046875,9.09423828125
252663.391804916,0.7213134765625,0.5531005859375,0.5343017578125,138.61083984375,-134.94873046875,9.09423828125
252663.391889,0.7213134765625,0.5531005859375,0.5343017578125,109.80224609375,-134.94873046875,9.09423828125
252663.392672875,0.7213134765625,0.5531005859375,0.5343017578125,109.80224609375,-129.5166015625,9.09423828125
252663.407065833,0.6015625,0.5531005859375,0.5343017578125,109.80224609375,-129.5166015625,9.09423828125
252663.407184833,0.6015625,0.4547119140625,0.5343017578125,109.80224609375,-129.5166015625,9.09423828125
252663.407256375,0.6015625,0.4547119140625,0.5887451171875,109.80224609375,-129.5166015625,9.09423828125
252663.421835125,0.6015625,0.4547119140625,0.5887451171875,109.80224609375,-130.615234375,9.09423828125
252663.421934833,0.6015625,0.4547119140625,0.5887451171875,109.80224609375,-130.615234375,7.568359375
252663.436672166,0.5096435546875,0.4547119140625,0.5887451171875,109.80224609375,-130.615234375,7.568359375
252663.43680025,0.5096435546875,0.4693603515625,0.5887451171875,109.80224609375,-130.615234375,7.568359375
252663.436842291,0.5096435546875,0.4693603515625,0.59228515625,109.80224609375,-130.615234375,7.568359375
252663.451716791,0.5096435546875,0.4693603515625,0.59228515625,109.80224609375,-127.50244140625,7.568359375
252663.451803166,0.5096435546875,0.4693603515625,0.59228515625,109.80224609375,-127.50244140625,14.892578125
252663.467692041,0.3740234375,0.4693603515625,0.59228515625,109.80224609375,-127.50244140625,14.892578125
252663.467755625,0.3740234375,0.291015625,0.59228515625,109.80224609375,-127.50244140625,14.892578125
252663.468157708,0.3740234375,0.291015625,0.457275390625,109.80224609375,-127.50244140625,14.892578125
252663.484259416,0.3740234375,0.291015625,0.457275390625,109.80224609375,-125.0,14.892578125
252663.484304375,0.3740234375,0.291015625,0.457275390625,109.80224609375,-125.0,17.333984375
252663.511694416,0.2581787109375,0.291015625,0.457275390625,109.80224609375,-125.0,17.333984375
252663.517502375,0.2581787109375,0.169677734375,0.457275390625,109.80224609375,-125.0,17.333984375
252663.517633375,0.2581787109375,0.169677734375,0.52294921875,109.80224609375,-125.0,17.333984375
252663.52684675,0.2581787109375,0.169677734375,0.52294921875,109.80224609375,-122.13134765625,17.333984375
252663.526927208,0.2581787109375,0.169677734375,0.52294921875,109.80224609375,-122.13134765625,19.83642578125
252663.572019541,0.0709228515625,0.169677734375,0.52294921875,109.80224609375,-122.13134765625,19.83642578125
252663.572126333,0.0709228515625,0.100341796875,0.52294921875,109.80224609375,-122.13134765625,19.83642578125
252663.573149958,0.0709228515625,0.100341796875,0.51513671875,109.80224609375,-122.13134765625,19.83642578125
252663.602171958,0.0709228515625,0.100341796875,0.51513671875,36.1328125,-122.13134765625,19.83642578125
252663.60233425,-0.0384521484375,0.100341796875,0.51513671875,36.1328125,-122.13134765625,19.83642578125
252663.60239875,-0.0384521484375,0.06884765625,0.51513671875,36.1328125,-122.13134765625,19.83642578125
252663.61836125,-0.0384521484375,0.06884765625,0.410888671875,36.1328125,-122.13134765625,19.83642578125
252663.618417833,-0.0384521484375,0.06884765625,0.410888671875,36.1328125,-110.41259765625,19.83642578125
252663.618470583,-0.0384521484375,0.06884765625,0.410888671875,36.1328125,-110.41259765625,31.73828125
252663.646528208,-0.2650146484375,0.06884765625,0.410888671875,36.1328125,-110.41259765625,31.73828125
252663.648157416,-0.2650146484375,-0.1986083984375,0.410888671875,36.1328125,-110.41259765625,31.73828125
252663.6483275,-0.2650146484375,-0.1986083984375,0.224365234375,36.1328125,-110.41259765625,31.73828125
252663.648375125,-0.2650146484375,-0.1986083984375,0.224365234375,36.1328125,-64.88037109375,31.73828125
252663.676772333,-0.322998046875,-0.1986083984375,0.224365234375,36.1328125,-64.88037109375,31.73828125
252663.676938791,-0.322998046875,-0.240234375,0.224365234375,36.1328125,-64.88037109375,31.73828125
252663.677527166,-0.322998046875,-0.240234375,0.2066650390625,36.1328125,-64.88037109375,31.73828125
252663.692037958,-0.322998046875,-0.240234375,0.2066650390625,36.1328125,-39.6728515625,31.73828125
252663.692177708,-0.322998046875,-0.240234375,0.2066650390625,36.1328125,-39.6728515625,16.7236328125
252663.721738541,-0.3363037109375,-0.240234375,0.2066650390625,36.1328125,-39.6728515625,16.7236328125
252663.7218695,-0.3363037109375,-0.2230224609375,0.2066650390625,36.1328125,-39.6728515625,16.7236328125
252663.725367625,-0.3363037109375,-0.2230224609375,0.1282958984375,36.1328125,-39.6728515625,16.7236328125
252663.725425375,-0.3363037109375,-0.2230224609375,0.1282958984375,18.310546875,-39.6728515625,16.7236328125
252663.751463666,-0.2724609375,-0.2230224609375,0.1282958984375,18.310546875,-39.6728515625,16.7236328125
252663.751518208,-0.2724609375,-0.3131103515625,0.1282958984375,18.310546875,-39.6728515625,16.7236328125
252663.751565166,-0.2724609375,-0.3131103515625,0.10888671875,18.310546875,-39.6728515625,16.7236328125
252663.7682545,-0.2724609375,-0.3131103515625,0.10888671875,18.310546875,4.0283203125,16.7236328125
252663.768310208,-0.2724609375,-0.3131103515625,0.10888671875,18.310546875,4.0283203125,1.77001953125
252663.768358166,-0.2542724609375,-0.3131103515625,0.10888671875,18.310546875,4.0283203125,1.77001953125
252663.795849,-0.2542724609375,-0.3131103515625,0.1273193359375,18.310546875,4.0283203125,1.77001953125
252663.797376291,-0.2542724609375,-0.3131103515625,0.1273193359375,-47.4853515625,4.0283203125,1.77001953125
252663.797489208,-0.2542724609375,-0.3131103515625,0.1273193359375,-47.4853515625,19.04296875,1.77001953125
252663.818103125,-0.1939697265625,-0.3131103515625,0.1273193359375,-47.4853515625,19.04296875,1.77001953125
252663.818159708,-0.1939697265625,-0.121826171875,0.1273193359375,-47.4853515625,19.04296875,1.77001953125
252663.818206125,-0.1939697265625,-0.121826171875,0.193359375,-47.4853515625,19.04296875,1.77001953125
252663.826777375,-0.1939697265625,-0.121826171875,0.193359375,-47.4853515625,19.04296875,-4.638671875
252663.841927791,-0.1240234375,-0.121826171875,0.193359375,-47.4853515625,19.04296875,-4.638671875
252663.842054166,-0.1240234375,-0.07666015625,0.193359375,-47.4853515625,19.04296875,-4.638671875
252663.8421265,-0.1240234375,-0.07666015625,0.2720947265625,-47.4853515625,19.04296875,-4.638671875
252663.872494166,-0.1240234375,-0.07666015625,0.2720947265625,-47.4853515625,63.53759765625,-4.638671875
252663.872651208,-0.1240234375,-0.07666015625,0.2720947265625,-47.4853515625,63.53759765625,-8.4228515625
252663.901035333,-0.044189453125,-0.07666015625,0.2720947265625,-47.4853515625,63.53759765625,-8.4228515625
252663.902494791,-0.044189453125,0.0020751953125,0.2720947265625,-47.4853515625,63.53759765625,-8.4228515625
252663.902624291,-0.044189453125,0.0020751953125,0.4034423828125,-47.4853515625,63.53759765625,-8.4228515625
252663.930873083,-0.044189453125,0.0020751953125,0.4034423828125,-47.4853515625,63.53759765625,-12.39013671875
252663.951564958,0.2396240234375,0.0020751953125,0.4034423828125,-47.4853515625,63.53759765625,-12.39013671875
252663.951616166,0.2396240234375,0.2060546875,0.4034423828125,-47.4853515625,63.53759765625,-12.39013671875
252663.951661166,0.2396240234375,0.2060546875,0.5823974609375,-47.4853515625,63.53759765625,-12.39013671875
252663.96817975,0.2396240234375,0.2060546875,0.5823974609375,-47.4853515625,117.24853515625,-12.39013671875
252663.968231125,0.2396240234375,0.2060546875,0.5823974609375,-47.4853515625,117.24853515625,-23.4375
252663.992491125,0.4150390625,0.2060546875,0.5823974609375,-47.4853515625,117.24853515625,-23.4375
252663.992625083,0.4150390625,0.314453125,0.5823974609375,-47.4853515625,117.24853515625,-23.4375
252663.993111958,0.4150390625,0.314453125,0.78173828125,-47.4853515625,117.24853515625,-23.4375
252663.993206333,0.4150390625,0.314453125,0.78173828125,-91.4306640625,117.24853515625,-23.4375
252664.022491458,0.5164794921875,0.314453125,0.78173828125,-91.4306640625,117.24853515625,-23.4375
252664.022670916,0.5164794921875,0.4716796875,0.78173828125,-91.4306640625,117.24853515625,-23.4375
252664.022755291,0.5164794921875,0.4716796875,0.8167724609375,-91.4306640625,117.24853515625,-23.4375
252664.022807583,0.5164794921875,0.4716796875,0.8167724609375,-82.763671875,117.24853515625,-23.4375
252664.036779583,0.62158203125,0.4716796875,0.8167724609375,-82.763671875,117.24853515625,-23.4375
252664.036929708,0.62158203125,0.49951171875,0.8167724609375,-82.763671875,117.24853515625,-23.4375
252664.036994291,0.62158203125,0.49951171875,0.8079833984375,-82.763671875,117.24853515625,-23.4375
252664.051883666,0.62158203125,0.49951171875,0.8079833984375,-82.763671875,117.7978515625,-23.4375
252664.052005291,0.62158203125,0.49951171875,0.8079833984375,-82.763671875,117.7978515625,-20.99609375
252664.067967791,0.65185546875,0.49951171875,0.8079833984375,-82.763671875,117.7978515625,-20.99609375
252664.068025041,0.65185546875,0.5147705078125,0.8079833984375,-82.763671875,117.7978515625,-20.99609375
252664.068141333,0.65185546875,0.5147705078125,0.853759765625,-82.763671875,117.7978515625,-20.99609375
252664.096785416,0.65185546875,0.5147705078125,0.853759765625,-82.763671875,115.6005859375,-20.99609375
252664.09690875,0.65185546875,0.5147705078125,0.853759765625,-82.763671875,115.6005859375,-18.1884765625
252664.097596041,0.6837158203125,0.5147705078125,0.853759765625,-82.763671875,115.6005859375,-18.1884765625
252664.118124583,0.6837158203125,0.5863037109375,0.853759765625,-82.763671875,115.6005859375,-18.1884765625
252664.118176625,0.6837158203125,0.5863037109375,0.853759765625,-82.763671875,118.34716796875,-18.1884765625
252664.118223958,0.6837158203125,0.5863037109375,0.853759765625,-82.763671875,118.34716796875,-5.4931640625
252664.172112958,0.740478515625,0.5863037109375,0.853759765625,-82.763671875,118.34716796875,-5.4931640625
252664.172239333,0.740478515625,0.538330078125,0.853759765625,-82.763671875,118.34716796875,-5.4931640625
252664.173037791,0.740478515625,0.538330078125,0.8433837890625,-82.763671875,118.34716796875,-5.4931640625
252664.202112458,0.740478515625,0.538330078125,0.8433837890625,-82.763671875,116.02783203125,-5.4931640625
252664.202240708,0.8094482421875,0.538330078125,0.8433837890625,-82.763671875,116.02783203125,-5.4931640625
252664.206122916,0.8094482421875,0.5638427734375,0.8433837890625,-82.763671875,116.02783203125,-5.4931640625
252664.206205,0.8094482421875,0.5638427734375,0.784912109375,-82.763671875,116.02783203125,-5.4931640625
252664.216968041,0.8094482421875,0.5638427734375,0.784912109375,-82.763671875,115.3564453125,-5.4931640625
252664.220511833,0.8094482421875,0.5638427734375,0.784912109375,-82.763671875,115.3564453125,-12.939453125
252664.246424875,0.87060546875,0.5638427734375,0.784912109375,-82.763671875,115.3564453125,-12.939453125
252664.252345708,0.87060546875,0.6297607421875,0.784912109375,-82.763671875,115.3564453125,-12.939453125
252664.252426416,0.87060546875,0.6297607421875,0.6339111328125,-82.763671875,115.3564453125,-12.939453125
252664.252498416,0.87060546875,0.6297607421875,0.6339111328125,-57.80029296875,115.3564453125,-12.939453125
252664.26219175,0.9068603515625,0.6297607421875,0.6339111328125,-57.80029296875,115.3564453125,-12.939453125
252664.262377708,0.9068603515625,0.6171875,0.6339111328125,-57.80029296875,115.3564453125,-12.939453125
252664.270324125,0.9068603515625,0.6171875,0.6614990234375,-57.80029296875,115.3564453125,-12.939453125
252664.278342375,0.9068603515625,0.6171875,0.6614990234375,-57.80029296875,101.13525390625,-12.939453125
252664.278653083,0.9068603515625,0.6171875,0.6614990234375,-57.80029296875,101.13525390625,0.3662109375
252664.292855416,1.0018310546875,0.6171875,0.6614990234375,-57.80029296875,101.13525390625,0.3662109375
252664.293098208,1.0018310546875,0.68603515625,0.6614990234375,-57.80029296875,101.13525390625,0.3662109375
252664.293217,1.0018310546875,0.68603515625,0.7275390625,-57.80029296875,101.13525390625,0.3662109375
252664.3070745,1.0018310546875,0.68603515625,0.7275390625,-57.80029296875,102.84423828125,0.3662109375
252664.32238825,1.0018310546875,0.68603515625,0.7275390625,-57.80029296875,102.84423828125,2.99072265625
252664.322547875,0.98291015625,0.68603515625,0.7275390625,-57.80029296875,102.84423828125,2.99072265625
252664.322603333,0.98291015625,0.54443359375,0.7275390625,-57.80029296875,102.84423828125,2.99072265625
252664.323029625,0.98291015625,0.54443359375,0.6141357421875,-57.80029296875,102.84423828125,2.99072265625
252664.336981166,0.98291015625,0.54443359375,0.6141357421875,-57.80029296875,95.5810546875,2.99072265625
252664.337091333,0.98291015625,0.54443359375,0.6141357421875,-57.80029296875,95.5810546875,3.5400390625
252664.366872125,0.9871826171875,0.54443359375,0.6141357421875,-57.80029296875,95.5810546875,3.5400390625
252664.368385666,0.9871826171875,0.5718994140625,0.6141357421875,-57.80029296875,95.5810546875,3.5400390625
252664.368567791,0.9871826171875,0.5718994140625,0.5914306640625,-57.80029296875,95.5810546875,3.5400390625
252664.368670208,0.9871826171875,0.5718994140625,0.5914306640625,-38.0859375,95.5810546875,3.5400390625
252664.39687875,1.00048828125,0.5718994140625,0.5914306640625,-38.0859375,95.5810546875,3.5400390625
252664.397014791,1.00048828125,0.6343994140625,0.5914306640625,-38.0859375,95.5810546875,3.5400390625
252664.397929833,1.00048828125,0.6343994140625,0.6297607421875,-38.0859375,95.5810546875,3.5400390625
252664.398061916,1.00048828125,0.6343994140625,0.6297607421875,-29.60205078125,95.5810546875,3.5400390625
252664.418762625,0.9866943359375,0.6343994140625,0.6297607421875,-29.60205078125,95.5810546875,3.5400390625
252664.418835875,0.9866943359375,0.6141357421875,0.6297607421875,-29.60205078125,95.5810546875,3.5400390625
252664.4188965,0.9866943359375,0.6141357421875,0.6947021484375,-29.60205078125,95.5810546875,3.5400390625
252664.427154291,0.9866943359375,0.6141357421875,0.6947021484375,-29.60205078125,76.35498046875,3.5400390625
252664.427288458,0.9866943359375,0.6141357421875,0.6947021484375,-29.60205078125,76.35498046875,13.0615234375
252664.442183291,0.9339599609375,0.6141357421875,0.6947021484375,-29.60205078125,76.35498046875,13.0615234375
252664.442307083,0.9339599609375,0.4412841796875,0.6947021484375,-29.60205078125,76.35498046875,13.0615234375
252664.472197416,0.9339599609375,0.4412841796875,0.5230712890625,-29.60205078125,76.35498046875,13.0615234375
252664.47261075,0.9339599609375,0.4412841796875,0.5230712890625,-29.60205078125,60.60791015625,13.0615234375
252664.473152916,0.9339599609375,0.4412841796875,0.5230712890625,-29.60205078125,60.60791015625,13.48876953125
252664.502450833,0.9058837890625,0.4412841796875,0.5230712890625,-29.60205078125,60.60791015625,13.48876953125
252664.50265,0.9058837890625,0.4412841796875,0.5076904296875,-29.60205078125,60.60791015625,13.48876953125
252664.502747958,0.9058837890625,0.4412841796875,0.5076904296875,-46.142578125,60.60791015625,13.48876953125
252664.503078541,0.9058837890625,0.4412841796875,0.5076904296875,-46.142578125,42.78564453125,13.48876953125
252664.5186805,0.934326171875,0.4412841796875,0.5076904296875,-46.142578125,42.78564453125,13.48876953125
252664.518749583,0.934326171875,0.6444091796875,0.5076904296875,-46.142578125,42.78564453125,13.48876953125
252664.518811625,0.934326171875,0.6444091796875,0.5552978515625,-46.142578125,42.78564453125,13.48876953125
252664.535588,0.934326171875,0.6444091796875,0.5552978515625,-46.142578125,37.7197265625,13.48876953125
252664.535663708,0.934326171875,0.6444091796875,0.5552978515625,-46.142578125,37.7197265625,10.68115234375
252664.576276291,0.85546875,0.6444091796875,0.5552978515625,-46.142578125,37.7197265625,10.68115234375
252664.577763208,0.85546875,0.515869140625,0.5552978515625,-46.142578125,37.7197265625,10.68115234375
252664.577972875,0.85546875,0.515869140625,0.3104248046875,-46.142578125,37.7197265625,10.68115234375
252664.57811925,0.85546875,0.515869140625,0.3104248046875,23.5595703125,37.7197265625,10.68115234375
252664.606917791,0.8492431640625,0.515869140625,0.3104248046875,23.5595703125,37.7197265625,10.68115234375
252664.607064958,0.8492431640625,0.454345703125,0.3104248046875,23.5595703125,37.7197265625,10.68115234375
252664.607591708,0.8492431640625,0.454345703125,0.2635498046875,23.5595703125,37.7197265625,10.68115234375
252664.622166041,0.8492431640625,0.454345703125,0.2635498046875,23.5595703125,29.84619140625,10.68115234375
252664.622299,0.8492431640625,0.454345703125,0.2635498046875,23.5595703125,29.84619140625,10.8642578125
252664.652037375,0.849609375,0.454345703125,0.2635498046875,23.5595703125,29.84619140625,10.8642578125
252664.653226833,0.849609375,0.6444091796875,0.2635498046875,23.5595703125,29.84619140625,10.8642578125
252664.667152125,0.849609375,0.6444091796875,0.2606201171875,23.5595703125,29.84619140625,10.8642578125
252664.667348,0.849609375,0.6444091796875,0.2606201171875,-0.8544921875,29.84619140625,10.8642578125
252664.667452958,0.8575439453125,0.6444091796875,0.2606201171875,-0.8544921875,29.84619140625,10.8642578125
252664.668036166,0.8575439453125,0.55908203125,0.2606201171875,-0.8544921875,29.84619140625,10.8642578125
252664.685201708,0.8575439453125,0.55908203125,0.2606201171875,-0.8544921875,15.93017578125,10.8642578125
252664.685259791,0.8575439453125,0.55908203125,0.2606201171875,-0.8544921875,15.93017578125,8.056640625
252664.72654575,0.8768310546875,0.55908203125,0.2606201171875,-0.8544921875,15.93017578125,8.056640625
252664.728130875,0.8768310546875,0.51953125,0.2606201171875,-0.8544921875,15.93017578125,8.056640625
252664.728377875,0.8768310546875,0.51953125,0.3306884765625,-0.8544921875,15.93017578125,8.056640625
252664.728489291,0.8768310546875,0.51953125,0.3306884765625,-15.19775390625,15.93017578125,8.056640625
252664.752001916,0.90625,0.51953125,0.3306884765625,-15.19775390625,15.93017578125,8.056640625
252664.752060666,0.90625,0.58984375,0.3306884765625,-15.19775390625,15.93017578125,8.056640625
252664.752112958,0.90625,0.58984375,0.4210205078125,-15.19775390625,15.93017578125,8.056640625
252664.772573791,0.90625,0.58984375,0.4210205078125,-15.19775390625,-5.126953125,8.056640625
252664.7727185,0.90625,0.58984375,0.4210205078125,-15.19775390625,-5.126953125,10.19287109375
252664.786904375,0.939208984375,0.58984375,0.4210205078125,-15.19775390625,-5.126953125,10.19287109375
252664.78705325,0.939208984375,0.439453125,0.4210205078125,-15.19775390625,-5.126953125,10.19287109375
252664.788176625,0.939208984375,0.439453125,0.4251708984375,-15.19775390625,-5.126953125,10.19287109375
252664.801883041,0.939208984375,0.439453125,0.4251708984375,-15.19775390625,-5.126953125,4.7607421875
252664.831127291,1.017333984375,0.439453125,0.4251708984375,-15.19775390625,-5.126953125,4.7607421875
252664.832767875,1.017333984375,0.48974609375,0.4251708984375,-15.19775390625,-5.126953125,4.7607421875
252664.832998125,1.017333984375,0.48974609375,0.6292724609375,-15.19775390625,-5.126953125,4.7607421875
252664.833077625,1.017333984375,0.48974609375,0.6292724609375,15.44189453125,-5.126953125,4.7607421875
252664.862274958,1.066162109375,0.48974609375,0.6292724609375,15.44189453125,-5.126953125,4.7607421875
252664.868420666,1.066162109375,0.487548828125,0.6292724609375,15.44189453125,-5.126953125,4.7607421875
252664.868531166,1.066162109375,0.487548828125,0.608154296875,15.44189453125,-5.126953125,4.7607421875
252664.877099166,1.066162109375,0.487548828125,0.608154296875,15.44189453125,-43.27392578125,4.7607421875
252664.87725875,1.075927734375,0.487548828125,0.608154296875,15.44189453125,-43.27392578125,4.7607421875
252664.877344041,1.075927734375,0.5849609375,0.608154296875,15.44189453125,-43.27392578125,4.7607421875
252664.877869916,1.075927734375,0.5849609375,0.677734375,15.44189453125,-43.27392578125,4.7607421875
252664.892291291,1.075927734375,0.5849609375,0.677734375,15.44189453125,-57.43408203125,4.7607421875
252664.892431208,1.075927734375,0.5849609375,0.677734375,15.44189453125,-57.43408203125,-12.63427734375
252664.935846041,1.1363525390625,0.5849609375,0.677734375,15.44189453125,-57.43408203125,-12.63427734375
252664.9377815,1.1363525390625,0.6190185546875,0.677734375,15.44189453125,-57.43408203125,-12.63427734375
252664.93789925,1.1363525390625,0.6190185546875,0.7578125,15.44189453125,-57.43408203125,-12.63427734375
252664.937968833,1.1363525390625,0.6190185546875,0.7578125,76.66015625,-57.43408203125,-12.63427734375
NEW_REP,,,,,,
252664.951813625,1.16943359375,0.6190185546875,0.7578125,76.66015625,-57.43408203125,-12.63427734375
252664.951933583,1.16943359375,0.525390625,0.7578125,76.66015625,-57.43408203125,-12.63427734375
252664.95196825,1.16943359375,0.525390625,0.751953125,76.66015625,-57.43408203125,-12.63427734375
252664.967526708,1.16943359375,0.525390625,0.751953125,76.66015625,-92.10205078125,-12.63427734375
252664.967567458,1.16943359375,0.525390625,0.751953125,76.66015625,-92.10205078125,-22.27783203125
252664.99725775,1.2225341796875,0.525390625,0.751953125,76.66015625,-92.10205078125,-22.27783203125
252664.997361958,1.2225341796875,0.6162109375,0.751953125,76.66015625,-92.10205078125,-22.27783203125
252664.997421166,1.2225341796875,0.6162109375,0.75537109375,76.66015625,-92.10205078125,-22.27783203125
252664.99843425,1.2225341796875,0.6162109375,0.75537109375,31.06689453125,-92.10205078125,-22.27783203125
252665.017943291,1.16552734375,0.6162109375,0.75537109375,31.06689453125,-92.10205078125,-22.27783203125
252665.017994166,1.16552734375,0.683837890625,0.75537109375,31.06689453125,-92.10205078125,-22.27783203125
252665.0180345,1.16552734375,0.683837890625,0.737548828125,31.06689453125,-92.10205078125,-22.27783203125
252665.026950208,1.16552734375,0.683837890625,0.737548828125,31.06689453125,-134.94873046875,-22.27783203125
252665.027053583,1.16552734375,0.683837890625,0.737548828125,31.06689453125,-134.94873046875,-24.658203125
252665.042046375,1.118408203125,0.683837890625,0.737548828125,31.06689453125,-134.94873046875,-24.658203125
252665.042173791,1.118408203125,0.6756591796875,0.737548828125,31.06689453125,-134.94873046875,-24.658203125
252665.042243625,1.118408203125,0.6756591796875,0.6844482421875,31.06689453125,-134.94873046875,-24.658203125
252665.071832958,1.118408203125,0.6756591796875,0.6844482421875,31.06689453125,-138.916015625,-24.658203125
252665.071905958,1.118408203125,0.6756591796875,0.6844482421875,31.06689453125,-138.916015625,-23.681640625
252665.085090166,1.093994140625,0.6756591796875,0.6844482421875,31.06689453125,-138.916015625,-23.681640625
252665.102359333,1.093994140625,0.6756591796875,0.633544921875,31.06689453125,-138.916015625,-23.681640625
252665.102430458,1.093994140625,0.6756591796875,0.633544921875,78.2470703125,-138.916015625,-23.681640625
252665.10249675,1.093994140625,0.6756591796875,0.633544921875,78.2470703125,-141.78466796875,-23.681640625
252665.118633666,1.051025390625,0.6756591796875,0.633544921875,78.2470703125,-141.78466796875,-23.681640625
252665.118704333,1.051025390625,0.69580078125,0.633544921875,78.2470703125,-141.78466796875,-23.681640625
252665.118765583,1.051025390625,0.69580078125,0.6422119140625,78.2470703125,-141.78466796875,-23.681640625
252665.13539175,1.051025390625,0.69580078125,0.6422119140625,78.2470703125,-143.1884765625,-23.681640625
252665.135472375,1.051025390625,0.69580078125,0.6422119140625,78.2470703125,-143.1884765625,-17.15087890625
252665.161791291,0.9158935546875,0.69580078125,0.6422119140625,78.2470703125,-143.1884765625,-17.15087890625
252665.168674208,0.9158935546875,0.6739501953125,0.6422119140625,78.2470703125,-143.1884765625,-17.15087890625
252665.168741208,0.9158935546875,0.6739501953125,0.6680908203125,78.2470703125,-143.1884765625,-17.15087890625
252665.177108041,0.9158935546875,0.6739501953125,0.6680908203125,99.2431640625,-143.1884765625,-17.15087890625
252665.177312958,0.8299560546875,0.6739501953125,0.6680908203125,99.2431640625,-143.1884765625,-17.15087890625
252665.17739725,0.8299560546875,0.5870361328125,0.6680908203125,99.2431640625,-143.1884765625,-17.15087890625
252665.177935541,0.8299560546875,0.5870361328125,0.623046875,99.2431640625,-143.1884765625,-17.15087890625
252665.2369665,0.8299560546875,0.5870361328125,0.623046875,99.2431640625,-146.30126953125,-17.15087890625
252665.237164916,0.8299560546875,0.5870361328125,0.623046875,99.2431640625,-146.30126953125,4.45556640625
252665.237854,0.6785888671875,0.5870361328125,0.623046875,99.2431640625,-146.30126953125,4.45556640625
252665.238038166,0.6785888671875,0.5870361328125,0.6368408203125,99.2431640625,-146.30126953125,4.45556640625
252665.252498666,0.6785888671875,0.5870361328125,0.6368408203125,99.2431640625,-151.4892578125,4.45556640625
252665.252578041,0.6785888671875,0.5870361328125,0.6368408203125,99.2431640625,-151.4892578125,17.39501953125
252665.281805166,0.3984375,0.5870361328125,0.6368408203125,99.2431640625,-151.4892578125,17.39501953125
252665.28197875,0.3984375,0.448974609375,0.6368408203125,99.2431640625,-151.4892578125,17.39501953125
252665.282848333,0.3984375,0.448974609375,0.5838623046875,99.2431640625,-151.4892578125,17.39501953125
252665.28302925,0.3984375,0.448974609375,0.5838623046875,85.02197265625,-151.4892578125,17.39501953125
252665.326657416,0.3150634765625,0.448974609375,0.5838623046875,85.02197265625,-151.4892578125,17.39501953125
252665.327744041,0.3150634765625,0.335693359375,0.5838623046875,85.02197265625,-151.4892578125,17.39501953125
252665.37294575,0.3150634765625,0.335693359375,0.604248046875,85.02197265625,-151.4892578125,17.39501953125
252665.373406583,0.3150634765625,0.335693359375,0.604248046875,85.02197265625,-130.43212890625,17.39501953125
252665.373630916,0.228759765625,0.335693359375,0.604248046875,85.02197265625,-130.43212890625,17.39501953125
252665.402564458,0.228759765625,0.234375,0.604248046875,85.02197265625,-130.43212890625,17.39501953125
252665.402652791,0.228759765625,0.234375,0.604248046875,85.02197265625,-120.7275390625,17.39501953125
252665.402724208,0.228759765625,0.234375,0.604248046875,85.02197265625,-120.7275390625,35.21728515625
252665.419555208,-0.0914306640625,0.234375,0.604248046875,85.02197265625,-120.7275390625,35.21728515625
252665.419642375,-0.0914306640625,-0.0626220703125,0.604248046875,85.02197265625,-120.7275390625,35.21728515625
252665.419717166,-0.0914306640625,-0.0626220703125,0.1695556640625,85.02197265625,-120.7275390625,35.21728515625
252665.435761625,-0.0914306640625,-0.0626220703125,0.1695556640625,85.02197265625,-120.7275390625,29.23583984375
252665.452514375,-0.265380859375,-0.0626220703125,0.1695556640625,85.02197265625,-120.7275390625,29.23583984375
252665.452595083,-0.265380859375,-0.2255859375,0.1695556640625,85.02197265625,-120.7275390625,29.23583984375
252665.4526675,-0.265380859375,-0.2255859375,0.0191650390625,85.02197265625,-120.7275390625,29.23583984375
252665.462051583,-0.265380859375,-0.2255859375,0.0191650390625,85.02197265625,-82.21435546875,29.23583984375
252665.477113541,-0.265380859375,-0.2255859375,0.0191650390625,85.02197265625,-82.21435546875,23.4375
252665.47731425,-0.3348388671875,-0.2255859375,0.0191650390625,85.02197265625,-82.21435546875,23.4375
252665.477433833,-0.3348388671875,-0.1790771484375,0.0191650390625,85.02197265625,-82.21435546875,23.4375
252665.492237666,-0.3348388671875,-0.1790771484375,0.0191650390625,85.02197265625,-60.302734375,23.4375
252665.492413458,-0.3348388671875,-0.1790771484375,0.0191650390625,85.02197265625,-60.302734375,21.17919921875
252665.522159916,-0.3779296875,-0.1790771484375,0.0191650390625,85.02197265625,-60.302734375,21.17919921875
252665.52234525,-0.3779296875,-0.3026123046875,0.0191650390625,85.02197265625,-60.302734375,21.17919921875
252665.522893166,-0.3779296875,-0.3026123046875,-0.1138916015625,85.02197265625,-60.302734375,21.17919921875
252665.523086166,-0.3779296875,-0.3026123046875,-0.1138916015625,4.08935546875,-60.302734375,21.17919921875
252665.536918916,-0.3472900390625,-0.3026123046875,-0.1138916015625,4.08935546875,-60.302734375,21.17919921875
252665.537124083,-0.3472900390625,-0.280517578125,-0.1138916015625,4.08935546875,-60.302734375,21.17919921875
252665.537229041,-0.3472900390625,-0.280517578125,-0.0601806640625,4.08935546875,-60.302734375,21.17919921875
252665.55279525,-0.3472900390625,-0.280517578125,-0.0601806640625,4.08935546875,6.28662109375,21.17919921875
252665.552876458,-0.3472900390625,-0.280517578125,-0.0601806640625,4.08935546875,6.28662109375,9.46044921875
252665.568955625,-0.2901611328125,-0.280517578125,-0.0601806640625,4.08935546875,6.28662109375,9.46044921875
252665.569029333,-0.2901611328125,-0.2333984375,-0.0601806640625,4.08935546875,6.28662109375,9.46044921875
252665.569098541,-0.2901611328125,-0.2333984375,0.0438232421875,4.08935546875,6.28662109375,9.46044921875
252665.585806,-0.2901611328125,-0.2333984375,0.0438232421875,4.08935546875,31.67724609375,9.46044921875
252665.585884708,-0.2901611328125,-0.2333984375,0.0438232421875,4.08935546875,31.67724609375,6.65283203125
252665.602407875,-0.215087890625,-0.2333984375,0.0438232421875,4.08935546875,31.67724609375,6.65283203125
252665.602487625,-0.215087890625,-0.1572265625,0.0438232421875,4.08935546875,31.67724609375,6.65283203125
252665.6025585,-0.215087890625,-0.1572265625,0.159912109375,4.08935546875,31.67724609375,6.65283203125
252665.6122425,-0.215087890625,-0.1572265625,0.159912109375,4.08935546875,61.21826171875,6.65283203125
252665.612386625,-0.215087890625,-0.1572265625,0.159912109375,4.08935546875,61.21826171875,1.3427734375
252665.62714925,-0.1510009765625,-0.1572265625,0.159912109375,4.08935546875,61.21826171875,1.3427734375
252665.642426458,-0.1510009765625,-0.11279296875,0.159912109375,4.08935546875,61.21826171875,1.3427734375
252665.642666666,-0.1510009765625,-0.11279296875,0.29052734375,4.08935546875,61.21826171875,1.3427734375
252665.642760916,-0.1510009765625,-0.11279296875,0.29052734375,4.08935546875,79.52880859375,1.3427734375
252665.643056791,-0.1510009765625,-0.11279296875,0.29052734375,4.08935546875,79.52880859375,-5.06591796875
252665.672489125,-0.0477294921875,-0.11279296875,0.29052734375,4.08935546875,79.52880859375,-5.06591796875
252665.702315958,-0.0477294921875,-0.0030517578125,0.29052734375,4.08935546875,79.52880859375,-5.06591796875
252665.702607041,-0.0477294921875,-0.0030517578125,0.4298095703125,4.08935546875,79.52880859375,-5.06591796875
252665.702720375,-0.0477294921875,-0.0030517578125,0.4298095703125,4.08935546875,97.900390625,-5.06591796875
252665.732152291,0.1624755859375,-0.0030517578125,0.4298095703125,4.08935546875,97.900390625,-5.06591796875
252665.733510208,0.1624755859375,0.14892578125,0.4298095703125,4.08935546875,97.900390625,-5.06591796875
252665.733781666,0.1624755859375,0.14892578125,0.586181640625,4.08935546875,97.900390625,-5.06591796875
252665.733931125,0.1624755859375,0.14892578125,0.586181640625,4.08935546875,110.65673828125,-5.06591796875
252665.777088583,0.240234375,0.14892578125,0.586181640625,4.08935546875,110.65673828125,-5.06591796875
252665.777348666,0.240234375,0.3140869140625,0.586181640625,4.08935546875,110.65673828125,-5.06591796875
252665.777781166,0.240234375,0.3140869140625,0.6983642578125,4.08935546875,110.65673828125,-5.06591796875
252665.792128833,0.240234375,0.3140869140625,0.6983642578125,4.08935546875,112.73193359375,-5.06591796875
252665.792354375,0.3914794921875,0.3140869140625,0.6983642578125,4.08935546875,112.73193359375,-5.06591796875
252665.792474666,0.3914794921875,0.3531494140625,0.6983642578125,4.08935546875,112.73193359375,-5.06591796875
252665.819401416,0.3914794921875,0.3531494140625,0.7020263671875,4.08935546875,112.73193359375,-5.06591796875
252665.819481666,0.3914794921875,0.3531494140625,0.7020263671875,4.08935546875,124.57275390625,-5.06591796875
252665.819553166,0.3914794921875,0.3531494140625,0.7020263671875,4.08935546875,124.57275390625,-40.46630859375
252665.8220155,0.581298828125,0.3531494140625,0.7020263671875,4.08935546875,124.57275390625,-40.46630859375
252665.822221916,0.581298828125,0.67529296875,0.7020263671875,4.08935546875,124.57275390625,-40.46630859375
252665.8223295,0.581298828125,0.67529296875,0.92919921875,4.08935546875,124.57275390625,-40.46630859375
252665.837079875,0.581298828125,0.67529296875,0.92919921875,4.08935546875,129.150390625,-40.46630859375
252665.837252208,0.581298828125,0.67529296875,0.92919921875,4.08935546875,129.150390625,-39.85595703125
252665.881554291,0.6630859375,0.67529296875,0.92919921875,4.08935546875,129.150390625,-39.85595703125
252665.883409375,0.6630859375,0.658447265625,0.92919921875,4.08935546875,129.150390625,-39.85595703125
252665.883470333,0.6630859375,0.658447265625,0.803955078125,4.08935546875,129.150390625,-39.85595703125
252665.897528708,0.6630859375,0.658447265625,0.803955078125,4.08935546875,131.16455078125,-39.85595703125
252665.901573,0.71142578125,0.658447265625,0.803955078125,4.08935546875,131.16455078125,-39.85595703125
252665.90165225,0.71142578125,0.6119384765625,0.803955078125,4.08935546875,131.16455078125,-39.85595703125
252665.912437791,0.71142578125,0.6119384765625,1.0008544921875,4.08935546875,131.16455078125,-39.85595703125
252665.917574791,0.71142578125,0.6119384765625,1.0008544921875,4.08935546875,129.150390625,-39.85595703125
252665.917640708,0.71142578125,0.6119384765625,1.0008544921875,4.08935546875,129.150390625,-36.376953125
252665.941739041,0.8096923828125,0.6119384765625,1.0008544921875,4.08935546875,129.150390625,-36.376953125
252665.941776416,0.8096923828125,0.6507568359375,1.0008544921875,4.08935546875,129.150390625,-36.376953125
252665.94272025,0.8096923828125,0.6507568359375,0.8065185546875,4.08935546875,129.150390625,-36.376953125
252665.942770458,0.8096923828125,0.6507568359375,0.8065185546875,-102.4169921875,129.150390625,-36.376953125
252665.972997625,0.8179931640625,0.6507568359375,0.8065185546875,-102.4169921875,129.150390625,-36.376953125
252665.973137125,0.8179931640625,0.8115234375,0.8065185546875,-102.4169921875,129.150390625,-36.376953125
252665.973386041,0.8179931640625,0.8115234375,0.8509521484375,-102.4169921875,129.150390625,-36.376953125
252666.004837458,0.8179931640625,0.8115234375,0.8509521484375,-102.4169921875,109.130859375,-36.376953125
252666.005078333,0.8179931640625,0.8115234375,0.8509521484375,-102.4169921875,109.130859375,-17.4560546875
252666.005120583,0.9066162109375,0.8115234375,0.8509521484375,-102.4169921875,109.130859375,-17.4560546875
252666.017949208,0.9066162109375,0.8115234375,0.7220458984375,-102.4169921875,109.130859375,-17.4560546875
252666.017995375,0.9066162109375,0.8115234375,0.7220458984375,-53.7109375,109.130859375,-17.4560546875
252666.018037458,0.9066162109375,0.8115234375,0.7220458984375,-53.7109375,101.37939453125,-17.4560546875
252666.03499125,0.8443603515625,0.8115234375,0.7220458984375,-53.7109375,101.37939453125,-17.4560546875
252666.03504425,0.8443603515625,0.56787109375,0.7220458984375,-53.7109375,101.37939453125,-17.4560546875
252666.035091083,0.8443603515625,0.56787109375,0.68017578125,-53.7109375,101.37939453125,-17.4560546875
252666.051913875,0.8443603515625,0.56787109375,0.68017578125,-53.7109375,90.88134765625,-17.4560546875
252666.05197475,0.8443603515625,0.56787109375,0.68017578125,-53.7109375,90.88134765625,-10.986328125
252666.076053541,0.851806640625,0.56787109375,0.68017578125,-53.7109375,90.88134765625,-10.986328125
252666.077822041,0.851806640625,0.5302734375,0.68017578125,-53.7109375,90.88134765625,-10.986328125
252666.077986125,0.851806640625,0.5302734375,0.5625,-53.7109375,90.88134765625,-10.986328125
252666.078047916,0.851806640625,0.5302734375,0.5625,-53.7109375,83.6181640625,-10.986328125
252666.091984916,0.9813232421875,0.5302734375,0.5625,-53.7109375,83.6181640625,-10.986328125
252666.092201208,0.9813232421875,0.7347412109375,0.5625,-53.7109375,83.6181640625,-10.986328125
252666.092311416,0.9813232421875,0.7347412109375,0.711181640625,-53.7109375,83.6181640625,-10.986328125
252666.107073458,0.9813232421875,0.7347412109375,0.711181640625,-53.7109375,79.77294921875,-10.986328125
252666.107233625,0.9813232421875,0.7347412109375,0.711181640625,-53.7109375,79.77294921875,-10.986328125
252666.122052208,0.88818359375,0.7347412109375,0.711181640625,-53.7109375,79.77294921875,-10.986328125
252666.122302791,0.88818359375,0.6361083984375,0.711181640625,-53.7109375,79.77294921875,-10.986328125
252666.122435916,0.88818359375,0.6361083984375,0.6171875,-53.7109375,79.77294921875,-10.986328125
252666.137103291,0.88818359375,0.6361083984375,0.6171875,-53.7109375,71.4111328125,-10.986328125
252666.137285708,0.88818359375,0.6361083984375,0.6171875,-53.7109375,71.4111328125,-5.2490234375
252666.153298458,0.91748046875,0.6361083984375,0.6171875,-53.7109375,71.4111328125,-5.2490234375
252666.15339425,0.91748046875,0.580078125,0.6171875,-53.7109375,71.4111328125,-5.2490234375
252666.153593541,0.91748046875,0.580078125,0.5057373046875,-53.7109375,71.4111328125,-5.2490234375
252666.169697916,0.91748046875,0.580078125,0.5057373046875,-53.7109375,65.3076171875,-5.2490234375
252666.169793291,0.91748046875,0.580078125,0.5057373046875,-53.7109375,65.3076171875,-6.89697265625
252666.197369375,0.9571533203125,0.580078125,0.5057373046875,-53.7109375,65.3076171875,-6.89697265625
252666.202965125,0.9571533203125,0.7236328125,0.5057373046875,-53.7109375,65.3076171875,-6.89697265625
252666.203105708,0.9571533203125,0.7236328125,0.6683349609375,-53.7109375,65.3076171875,-6.89697265625
252666.20319325,0.9571533203125,0.7236328125,0.6683349609375,-30.33447265625,65.3076171875,-6.89697265625
252666.242526458,0.9111328125,0.7236328125,0.6683349609375,-30.33447265625,65.3076171875,-6.89697265625
252666.248281875,0.9111328125,0.5701904296875,0.6683349609375,-30.33447265625,65.3076171875,-6.89697265625
252666.248374791,0.9111328125,0.5701904296875,0.5965576171875,-30.33447265625,65.3076171875,-6.89697265625
252666.2484595,0.9111328125,0.5701904296875,0.5965576171875,26.79443359375,65.3076171875,-6.89697265625
252666.271149666,0.9722900390625,0.5701904296875,0.5965576171875,26.79443359375,65.3076171875,-6.89697265625
252666.2722985,0.9722900390625,0.400146484375,0.5965576171875,26.79443359375,65.3076171875,-6.89697265625
252666.272467791,0.9722900390625,0.400146484375,0.470458984375,26.79443359375,65.3076171875,-6.89697265625
252666.287037208,0.9722900390625,0.400146484375,0.470458984375,26.79443359375,47.30224609375,-6.89697265625
252666.2872055,0.9722900390625,0.400146484375,0.470458984375,26.79443359375,47.30224609375,-0.1220703125
252666.316321875,0.8260498046875,0.400146484375,0.470458984375,26.79443359375,47.30224609375,-0.1220703125
252666.347374666,0.8260498046875,0.589599609375,0.470458984375,26.79443359375,47.30224609375,-0.1220703125
252666.348432958,0.8260498046875,0.589599609375,0.363037109375,26.79443359375,47.30224609375,-0.1220703125
252666.348834541,0.8260498046875,0.589599609375,0.363037109375,-64.02587890625,47.30224609375,-0.1220703125
252666.368930791,0.813720703125,0.589599609375,0.363037109375,-64.02587890625,47.30224609375,-0.1220703125
252666.378691875,0.813720703125,0.589599609375,0.2611083984375,-64.02587890625,47.30224609375,-0.1220703125
252666.378971583,0.813720703125,0.589599609375,0.2611083984375,-24.10888671875,47.30224609375,-0.1220703125
252666.379110041,0.813720703125,0.589599609375,0.2611083984375,-24.10888671875,25.20751953125,-0.1220703125
252666.385664958,0.88134765625,0.589599609375,0.2611083984375,-24.10888671875,25.20751953125,-0.1220703125
252666.407600541,0.88134765625,0.589599609375,0.2589111328125,-24.10888671875,25.20751953125,-0.1220703125
252666.407797541,0.88134765625,0.589599609375,0.2589111328125,9.27734375,25.20751953125,-0.1220703125
252666.407980791,0.88134765625,0.589599609375,0.2589111328125,9.27734375,27.52685546875,-0.1220703125
252666.408145291,0.8668212890625,0.589599609375,0.2589111328125,9.27734375,27.52685546875,-0.1220703125
252666.422005708,0.8668212890625,0.589599609375,0.2852783203125,9.27734375,27.52685546875,-0.1220703125
252666.42220225,0.8668212890625,0.589599609375,0.2852783203125,-0.42724609375,27.52685546875,-0.1220703125
252666.422275666,0.8668212890625,0.589599609375,0.2852783203125,-0.42724609375,21.05712890625,-0.1220703125
252666.4520745,0.89794921875,0.589599609375,0.2852783203125,-0.42724609375,21.05712890625,-0.1220703125
252666.452256916,0.89794921875,0.5701904296875,0.2852783203125,-0.42724609375,21.05712890625,-0.1220703125
252666.452779625,0.89794921875,0.5701904296875,0.33056640625,-0.42724609375,21.05712890625,-0.1220703125
252666.46735075,0.89794921875,0.5701904296875,0.33056640625,12.26806640625,21.05712890625,-0.1220703125
252666.467616791,0.8829345703125,0.5701904296875,0.33056640625,12.26806640625,21.05712890625,-0.1220703125
252666.467728125,0.8829345703125,0.46484375,0.33056640625,12.26806640625,21.05712890625,-0.1220703125
252666.468227,0.8829345703125,0.46484375,0.2967529296875,12.26806640625,21.05712890625,-0.1220703125
252666.48555625,0.8829345703125,0.46484375,0.2967529296875,12.26806640625,9.765625,-0.1220703125
252666.485622458,0.8829345703125,0.46484375,0.2967529296875,12.26806640625,9.765625,-4.0283203125
252666.511635791,0.9061279296875,0.46484375,0.2967529296875,12.26806640625,9.765625,-4.0283203125
NEW_REP,,,,,,
252666.51882675,0.9061279296875,0.5272216796875,0.2967529296875,12.26806640625,9.765625,-4.0283203125
252666.518895541,0.9061279296875,0.5272216796875,0.3387451171875,12.26806640625,9.765625,-4.0283203125
252666.518958208,0.9061279296875,0.5272216796875,0.3387451171875,-10.19287109375,9.765625,-4.0283203125
252666.542810375,0.9312744140625,0.5272216796875,0.3387451171875,-10.19287109375,9.765625,-4.0283203125
252666.543013875,0.9312744140625,0.5965576171875,0.3387451171875,-10.19287109375,9.765625,-4.0283203125
252666.543085666,0.9312744140625,0.5965576171875,0.4176025390625,-10.19287109375,9.765625,-4.0283203125
252666.574827416,0.9312744140625,0.5965576171875,0.4176025390625,-1.77001953125,9.765625,-4.0283203125
252666.575021333,0.951416015625,0.5965576171875,0.4176025390625,-1.77001953125,9.765625,-4.0283203125
252666.575128041,0.951416015625,0.5789794921875,0.4176025390625,-1.77001953125,9.765625,-4.0283203125
252666.602704291,0.951416015625,0.5789794921875,0.465576171875,-1.77001953125,9.765625,-4.0283203125
252666.602881041,0.951416015625,0.5789794921875,0.465576171875,-1.77001953125,-14.58740234375,-4.0283203125
252666.602944958,0.951416015625,0.5789794921875,0.465576171875,-1.77001953125,-14.58740234375,1.28173828125
252666.603385208,1.038330078125,0.5789794921875,0.465576171875,-1.77001953125,-14.58740234375,1.28173828125
252666.619494625,1.038330078125,0.5789794921875,0.6376953125,-1.77001953125,-14.58740234375,1.28173828125
252666.619563166,1.038330078125,0.5789794921875,0.6376953125,32.958984375,-14.58740234375,1.28173828125
252666.619624208,1.038330078125,0.5789794921875,0.6376953125,32.958984375,-27.52685546875,1.28173828125
252666.635619125,1.07373046875,0.5789794921875,0.6376953125,32.958984375,-27.52685546875,1.28173828125
252666.63568325,1.07373046875,0.5452880859375,0.6376953125,32.958984375,-27.52685546875,1.28173828125
252666.635742208,1.07373046875,0.5452880859375,0.698974609375,32.958984375,-27.52685546875,1.28173828125
252666.652445041,1.07373046875,0.5452880859375,0.698974609375,32.958984375,-46.142578125,1.28173828125
252666.652522916,1.07373046875,0.5452880859375,0.698974609375,32.958984375,-46.142578125,7.99560546875
252666.662277708,1.08447265625,0.5452880859375,0.698974609375,32.958984375,-46.142578125,7.99560546875
252666.66251925,1.08447265625,0.51123046875,0.698974609375,32.958984375,-46.142578125,7.99560546875
252666.668916125,1.08447265625,0.51123046875,0.6990966796875,32.958984375,-46.142578125,7.99560546875
252666.677305958,1.08447265625,0.51123046875,0.6990966796875,32.958984375,-61.82861328125,7.99560546875
252666.677483666,1.08447265625,0.51123046875,0.6990966796875,32.958984375,-61.82861328125,8.30078125
252666.692237416,1.0924072265625,0.51123046875,0.6990966796875,32.958984375,-61.82861328125,8.30078125
252666.692446166,1.0924072265625,0.578125,0.6990966796875,32.958984375,-61.82861328125,8.30078125
252666.692554875,1.0924072265625,0.578125,0.70361328125,32.958984375,-61.82861328125,8.30078125
252666.707308958,1.0924072265625,0.578125,0.70361328125,32.958984375,-81.298828125,8.30078125
252666.707487291,1.0924072265625,0.578125,0.70361328125,32.958984375,-81.298828125,6.34765625
252666.722004166,1.0758056640625,0.578125,0.70361328125,32.958984375,-81.298828125,6.34765625
252666.722191375,1.0758056640625,0.6710205078125,0.70361328125,32.958984375,-81.298828125,6.34765625
252666.722294916,1.0758056640625,0.6710205078125,0.694580078125,32.958984375,-81.298828125,6.34765625
252666.736973333,1.0758056640625,0.6710205078125,0.694580078125,32.958984375,-92.1630859375,6.34765625
252666.737137541,1.0758056640625,0.6710205078125,0.694580078125,32.958984375,-92.1630859375,6.65283203125
252666.752362125,1.0928955078125,0.6710205078125,0.694580078125,32.958984375,-92.1630859375,6.65283203125
252666.752437,1.0928955078125,0.5784912109375,0.694580078125,32.958984375,-92.1630859375,6.65283203125
252666.752505291,1.0928955078125,0.5784912109375,0.673095703125,32.958984375,-92.1630859375,6.65283203125
252666.768926916,1.0928955078125,0.5784912109375,0.673095703125,32.958984375,-105.3466796875,6.65283203125
252666.769002208,1.0928955078125,0.5784912109375,0.673095703125,32.958984375,-105.3466796875,7.568359375
252666.785712708,1.0963134765625,0.5784912109375,0.673095703125,32.958984375,-105.3466796875,7.568359375
252666.785776083,1.0963134765625,0.6539306640625,0.673095703125,32.958984375,-105.3466796875,7.568359375
252666.785835,1.0963134765625,0.6539306640625,0.731201171875,32.958984375,-105.3466796875,7.568359375
252666.802452375,1.0963134765625,0.6539306640625,0.731201171875,32.958984375,-122.0703125,7.568359375
252666.802525333,1.0963134765625,0.6539306640625,0.731201171875,32.958984375,-122.0703125,10.009765625
252666.826600458,1.0634765625,0.6539306640625,0.731201171875,32.958984375,-122.0703125,10.009765625
252666.827709958,1.0634765625,0.7279052734375,0.731201171875,32.958984375,-122.0703125,10.009765625
252666.842115166,1.0634765625,0.7279052734375,0.71533203125,32.958984375,-122.0703125,10.009765625
252666.842339083,1.0634765625,0.7279052734375,0.71533203125,32.958984375,-133.36181640625,10.009765625
252666.842435833,1.0634765625,0.7279052734375,0.71533203125,32.958984375,-133.36181640625,15.13671875
252666.872230416,0.97705078125,0.7279052734375,0.71533203125,32.958984375,-133.36181640625,15.13671875
252666.872611583,0.97705078125,0.737060546875,0.71533203125,32.958984375,-133.36181640625,15.13671875
252666.873055291,0.97705078125,0.737060546875,0.6614990234375,32.958984375,-133.36181640625,15.13671875
252666.902178083,0.97705078125,0.737060546875,0.6614990234375,32.958984375,-139.95361328125,15.13671875
252666.902355791,0.97705078125,0.737060546875,0.6614990234375,32.958984375,-139.95361328125,23.4375
252666.902450416,0.8837890625,0.737060546875,0.6614990234375,32.958984375,-139.95361328125,23.4375
252666.918441333,0.8837890625,0.737060546875,0.6614990234375,81.0546875,-139.95361328125,23.4375
252666.918497583,0.8837890625,0.737060546875,0.6614990234375,81.0546875,-141.78466796875,23.4375
252666.918545958,0.8837890625,0.737060546875,0.6614990234375,81.0546875,-141.78466796875,24.96337890625
252666.96141375,0.7725830078125,0.737060546875,0.6614990234375,81.0546875,-141.78466796875,24.96337890625
252666.963230166,0.7725830078125,0.669921875,0.6614990234375,81.0546875,-141.78466796875,24.96337890625
252666.963501208,0.7725830078125,0.669921875,0.6591796875,81.0546875,-141.78466796875,24.96337890625
252666.96363825,0.7725830078125,0.669921875,0.6591796875,84.41162109375,-141.78466796875,24.96337890625
252666.9925095,0.7274169921875,0.669921875,0.6591796875,84.41162109375,-141.78466796875,24.96337890625
252666.9929105,0.7274169921875,0.645751953125,0.6591796875,84.41162109375,-141.78466796875,24.96337890625
252666.993201291,0.7274169921875,0.645751953125,0.6768798828125,84.41162109375,-141.78466796875,24.96337890625
252667.021685583,0.7274169921875,0.645751953125,0.6768798828125,84.41162109375,-139.0380859375,24.96337890625
252667.023937291,0.5634765625,0.645751953125,0.6768798828125,84.41162109375,-139.0380859375,24.96337890625
252667.024325333,0.5634765625,0.468505859375,0.6768798828125,84.41162109375,-139.0380859375,24.96337890625
252667.024530083,0.5634765625,0.468505859375,0.6510009765625,84.41162109375,-139.0380859375,24.96337890625
252667.051329625,0.5634765625,0.468505859375,0.6510009765625,84.41162109375,-143.98193359375,24.96337890625
252667.051382291,0.5634765625,0.468505859375,0.6510009765625,84.41162109375,-143.98193359375,31.982421875
252667.068453333,0.43994140625,0.468505859375,0.6510009765625,84.41162109375,-143.98193359375,31.982421875
252667.068508583,0.43994140625,0.4671630859375,0.6510009765625,84.41162109375,-143.98193359375,31.982421875
252667.06856025,0.43994140625,0.4671630859375,0.701171875,84.41162109375,-143.98193359375,31.982421875
252667.068607041,0.43994140625,0.4671630859375,0.701171875,70.12939453125,-143.98193359375,31.982421875
252667.084801958,0.3349609375,0.4671630859375,0.701171875,70.12939453125,-143.98193359375,31.982421875
252667.084856291,0.3349609375,0.3875732421875,0.701171875,70.12939453125,-143.98193359375,31.982421875
252667.084904416,0.3349609375,0.3875732421875,0.6739501953125,70.12939453125,-143.98193359375,31.982421875
252667.101696958,0.3349609375,0.3875732421875,0.6739501953125,70.12939453125,-137.451171875,31.982421875
252667.101755125,0.3349609375,0.3875732421875,0.6739501953125,70.12939453125,-137.451171875,39.794921875
252667.111873791,0.1697998046875,0.3875732421875,0.6739501953125,70.12939453125,-137.451171875,39.794921875
252667.12714725,0.1697998046875,0.2491455078125,0.6739501953125,70.12939453125,-137.451171875,39.794921875
252667.127324958,0.1697998046875,0.2491455078125,0.5594482421875,70.12939453125,-137.451171875,39.794921875
252667.127420583,0.1697998046875,0.2491455078125,0.5594482421875,70.12939453125,-130.31005859375,39.794921875
252667.157847666,0.1697998046875,0.2491455078125,0.5594482421875,70.12939453125,-130.31005859375,38.818359375
252667.158081916,0.0582275390625,0.2491455078125,0.5594482421875,70.12939453125,-130.31005859375,38.818359375
252667.158176291,0.0582275390625,0.23388671875,0.5594482421875,70.12939453125,-130.31005859375,38.818359375
252667.1877085,0.0582275390625,0.23388671875,0.5379638671875,70.12939453125,-130.31005859375,38.818359375
252667.187950666,0.0582275390625,0.23388671875,0.5379638671875,70.12939453125,-117.5537109375,38.818359375
252667.188245166,0.0582275390625,0.23388671875,0.5379638671875,70.12939453125,-117.5537109375,37.109375
252667.21931125,-0.0858154296875,0.23388671875,0.5379638671875,70.12939453125,-117.5537109375,37.109375
252667.219392833,-0.0858154296875,0.0810546875,0.5379638671875,70.12939453125,-117.5537109375,37.109375
252667.219465291,-0.0858154296875,0.0810546875,0.4405517578125,70.12939453125,-117.5537109375,37.109375
252667.236174291,-0.0858154296875,0.0810546875,0.4405517578125,70.12939453125,-117.5537109375,32.77587890625
252667.262563833,-0.2659912109375,0.0810546875,0.4405517578125,70.12939453125,-117.5537109375,32.77587890625
252667.262737041,-0.2659912109375,-0.0623779296875,0.4405517578125,70.12939453125,-117.5537109375,32.77587890625
252667.268992208,-0.2659912109375,-0.0623779296875,0.27099609375,70.12939453125,-117.5537109375,32.77587890625
252667.269068333,-0.2659912109375,-0.0623779296875,0.27099609375,70.12939453125,-83.984375,32.77587890625
252667.277269583,-0.3480224609375,-0.0623779296875,0.27099609375,70.12939453125,-83.984375,32.77587890625
252667.277435,-0.3480224609375,-0.151123046875,0.27099609375,70.12939453125,-83.984375,32.77587890625
252667.27840175,-0.3480224609375,-0.151123046875,0.2008056640625,70.12939453125,-83.984375,32.77587890625
252667.292153333,-0.3480224609375,-0.151123046875,0.2008056640625,70.12939453125,-65.4296875,32.77587890625
252667.292341083,-0.3480224609375,-0.151123046875,0.2008056640625,70.12939453125,-65.4296875,26.18408203125
252667.32146625,-0.405029296875,-0.151123046875,0.2008056640625,70.12939453125,-65.4296875,26.18408203125
252667.337419041,-0.405029296875,-0.2034912109375,0.2008056640625,70.12939453125,-65.4296875,26.18408203125
252667.337631041,-0.405029296875,-0.2034912109375,0.1348876953125,70.12939453125,-65.4296875,26.18408203125
252667.341404,-0.405029296875,-0.2034912109375,0.1348876953125,-2.3193359375,-65.4296875,26.18408203125
252667.352403625,-0.410888671875,-0.2034912109375,0.1348876953125,-2.3193359375,-65.4296875,26.18408203125
252667.356932833,-0.410888671875,-0.2034912109375,0.1502685546875,-2.3193359375,-65.4296875,26.18408203125
252667.357065125,-0.410888671875,-0.2034912109375,0.1502685546875,-18.9208984375,-65.4296875,26.18408203125
252667.357140125,-0.410888671875,-0.2034912109375,0.1502685546875,-18.9208984375,-22.39990234375,26.18408203125
252667.367088916,-0.4056396484375,-0.2034912109375,0.1502685546875,-18.9208984375,-22.39990234375,26.18408203125
252667.385658166,-0.4056396484375,-0.1959228515625,0.1502685546875,-18.9208984375,-22.39990234375,26.18408203125
252667.385773583,-0.4056396484375,-0.1959228515625,0.1741943359375,-18.9208984375,-22.39990234375,26.18408203125
252667.402397875,-0.4056396484375,-0.1959228515625,0.1741943359375,-18.9208984375,1.708984375,26.18408203125
252667.402462833,-0.4056396484375,-0.1959228515625,0.1741943359375,-18.9208984375,1.708984375,7.87353515625
252667.402537833,-0.3870849609375,-0.1959228515625,0.1741943359375,-18.9208984375,1.708984375,7.87353515625
252667.441727375,-0.3870849609375,-0.1959228515625,0.2078857421875,-18.9208984375,1.708984375,7.87353515625
252667.443396916,-0.3870849609375,-0.1959228515625,0.2078857421875,-23.92578125,1.708984375,7.87353515625
252667.443585833,-0.3870849609375,-0.1959228515625,0.2078857421875,-23.92578125,19.04296875,7.87353515625
252667.443690791,-0.3441162109375,-0.1959228515625,0.2078857421875,-23.92578125,19.04296875,7.87353515625
252667.502694041,-0.3441162109375,-0.1959228515625,0.331787109375,-23.92578125,19.04296875,7.87353515625
252667.502906,-0.3441162109375,-0.1959228515625,0.331787109375,-30.76171875,19.04296875,7.87353515625
252667.5030215,-0.3441162109375,-0.1959228515625,0.331787109375,-30.76171875,38.75732421875,7.87353515625
252667.535989875,-0.2396240234375,-0.1959228515625,0.331787109375,-30.76171875,38.75732421875,7.87353515625
252667.536067,-0.2396240234375,-0.0888671875,0.331787109375,-30.76171875,38.75732421875,7.87353515625
252667.536322916,-0.2396240234375,-0.0888671875,0.283447265625,-30.76171875,38.75732421875,7.87353515625
252667.53638525,-0.2396240234375,-0.0888671875,0.283447265625,-30.76171875,59.326171875,7.87353515625
252667.536447291,-0.2396240234375,-0.0888671875,0.283447265625,-30.76171875,59.326171875,-19.47021484375
252667.577233791,-0.12109375,-0.0888671875,0.283447265625,-30.76171875,59.326171875,-19.47021484375
252667.578734833,-0.12109375,0.17724609375,0.283447265625,-30.76171875,59.326171875,-19.47021484375
252667.578928875,-0.12109375,0.17724609375,0.4764404296875,-30.76171875,59.326171875,-19.47021484375
252667.579037875,-0.12109375,0.17724609375,0.4764404296875,-59.99755859375,59.326171875,-19.47021484375
252667.602170666,-0.0477294921875,0.17724609375,0.4764404296875,-59.99755859375,59.326171875,-19.47021484375
252667.602241833,-0.0477294921875,0.19921875,0.4764404296875,-59.99755859375,59.326171875,-19.47021484375
252667.607001041,-0.0477294921875,0.19921875,0.5472412109375,-59.99755859375,59.326171875,-19.47021484375
252667.60724375,-0.0477294921875,0.19921875,0.5472412109375,-59.99755859375,109.7412109375,-19.47021484375
252667.607329958,-0.0477294921875,0.19921875,0.5472412109375,-59.99755859375,109.7412109375,-43.45703125
252667.637208333,0.1873779296875,0.19921875,0.5472412109375,-59.99755859375,109.7412109375,-43.45703125
252667.637334291,0.1873779296875,0.3619384765625,0.5472412109375,-59.99755859375,109.7412109375,-43.45703125
252667.63842475,0.1873779296875,0.3619384765625,0.5743408203125,-59.99755859375,109.7412109375,-43.45703125
252667.638582333,0.1873779296875,0.3619384765625,0.5743408203125,-77.94189453125,109.7412109375,-43.45703125
252667.652061375,0.264404296875,0.3619384765625,0.5743408203125,-77.94189453125,109.7412109375,-43.45703125
252667.652218583,0.264404296875,0.4552001953125,0.5743408203125,-77.94189453125,109.7412109375,-43.45703125
252667.652303458,0.264404296875,0.4552001953125,0.4940185546875,-77.94189453125,109.7412109375,-43.45703125
252667.697406083,0.264404296875,0.4552001953125,0.4940185546875,-77.94189453125,128.90625,-43.45703125
252667.697569541,0.264404296875,0.4552001953125,0.4940185546875,-77.94189453125,128.90625,-52.1240234375
252667.698518125,0.3988037109375,0.4552001953125,0.4940185546875,-77.94189453125,128.90625,-52.1240234375
252667.698677041,0.3988037109375,0.6624755859375,0.4940185546875,-77.94189453125,128.90625,-52.1240234375
252667.729098208,0.3988037109375,0.6624755859375,0.4940185546875,-77.94189453125,146.97265625,-52.1240234375
252667.735218708,0.3988037109375,0.6624755859375,0.4940185546875,-77.94189453125,146.97265625,-53.03955078125
252667.742531458,0.5445556640625,0.6624755859375,0.4940185546875,-77.94189453125,146.97265625,-53.03955078125
252667.74270925,0.5445556640625,0.6624755859375,0.462890625,-77.94189453125,146.97265625,-53.03955078125
252667.742819625,0.5445556640625,0.6624755859375,0.462890625,-46.32568359375,146.97265625,-53.03955078125
252667.7431165,0.5445556640625,0.6624755859375,0.462890625,-46.32568359375,144.53125,-53.03955078125
252667.7571985,0.6292724609375,0.6624755859375,0.462890625,-46.32568359375,144.53125,-53.03955078125
252667.757362583,0.6292724609375,0.6304931640625,0.462890625,-46.32568359375,144.53125,-53.03955078125
252667.757454,0.6292724609375,0.6304931640625,0.571044921875,-46.32568359375,144.53125,-53.03955078125
252667.787433,0.6292724609375,0.6304931640625,0.571044921875,-46.32568359375,148.49853515625,-53.03955078125
252667.787576625,0.6292724609375,0.6304931640625,0.571044921875,-46.32568359375,148.49853515625,-54.01611328125
252667.78827825,0.7896728515625,0.6304931640625,0.571044921875,-46.32568359375,148.49853515625,-54.01611328125
252667.788408166,0.7896728515625,0.8748779296875,0.571044921875,-46.32568359375,148.49853515625,-54.01611328125
252667.802272625,0.7896728515625,0.8748779296875,0.571044921875,-46.32568359375,149.71923828125,-54.01611328125
252667.802414041,0.7896728515625,0.8748779296875,0.571044921875,-46.32568359375,149.71923828125,-40.771484375
252667.818771458,0.8453369140625,0.8748779296875,0.571044921875,-46.32568359375,149.71923828125,-40.771484375
252667.81883375,0.8453369140625,0.6651611328125,0.571044921875,-46.32568359375,149.71923828125,-40.771484375
252667.81890375,0.8453369140625,0.6651611328125,0.5531005859375,-46.32568359375,149.71923828125,-40.771484375
252667.847688125,0.8453369140625,0.6651611328125,0.5531005859375,-46.32568359375,138.7939453125,-40.771484375
252667.847901333,0.8453369140625,0.6651611328125,0.5531005859375,-46.32568359375,138.7939453125,-43.701171875
252667.848007041,0.86669921875,0.6651611328125,0.5531005859375,-46.32568359375,138.7939453125,-43.701171875
252667.8762675,0.86669921875,0.6436767578125,0.5531005859375,-46.32568359375,138.7939453125,-43.701171875
252667.877624375,0.86669921875,0.6436767578125,0.5531005859375,-46.32568359375,133.60595703125,-43.701171875
252667.877745916,0.86669921875,0.6436767578125,0.5531005859375,-46.32568359375,133.60595703125,-53.466796875
252667.89235675,1.072021484375,0.6436767578125,0.5531005859375,-46.32568359375,133.60595703125,-53.466796875
252667.892530708,1.072021484375,0.9429931640625,0.5531005859375,-46.32568359375,133.60595703125,-53.466796875
252667.892623458,1.072021484375,0.9429931640625,0.9892578125,-46.32568359375,133.60595703125,-53.466796875
252667.921170958,1.072021484375,0.9429931640625,0.9892578125,-46.32568359375,133.60595703125,-36.56005859375
252667.93532625,0.9952392578125,0.9429931640625,0.9892578125,-46.32568359375,133.60595703125,-36.56005859375
252667.935387625,0.9952392578125,0.6669921875,0.9892578125,-46.32568359375,133.60595703125,-36.56005859375
252667.935452625,0.9952392578125,0.6669921875,0.6505126953125,-46.32568359375,133.60595703125,-36.56005859375
252667.93773725,0.9952392578125,0.6669921875,0.6505126953125,-46.32568359375,115.1123046875,-36.56005859375
252667.937844416,0.9952392578125,0.6669921875,0.6505126953125,-46.32568359375,115.1123046875,-25.32958984375
252667.967004916,1.095703125,0.6669921875,0.6505126953125,-46.32568359375,115.1123046875,-25.32958984375
252667.967153791,1.095703125,0.740478515625,0.6505126953125,-46.32568359375,115.1123046875,-25.32958984375
252667.967954375,1.095703125,0.740478515625,0.894287109375,-46.32568359375,115.1123046875,-25.32958984375
252667.968091416,1.095703125,0.740478515625,0.894287109375,-29.4189453125,115.1123046875,-25.32958984375
252667.9854615,1.095703125,0.740478515625,0.894287109375,-29.4189453125,105.89599609375,-25.32958984375
252667.985523708,1.095703125,0.740478515625,0.894287109375,-29.4189453125,105.89599609375,-12.0849609375
252668.012151291,1.0419921875,0.740478515625,0.894287109375,-29.4189453125,105.89599609375,-12.0849609375
252668.012301125,1.0419921875,0.5390625,0.894287109375,-29.4189453125,105.89599609375,-12.0849609375
252668.018737333,1.0419921875,0.5390625,0.6517333984375,-29.4189453125,105.89599609375,-12.0849609375
252668.027362416,1.0419921875,0.5390625,0.6517333984375,-29.4189453125,83.31298828125,-12.0849609375
252668.027491791,1.0419921875,0.5390625,0.6517333984375,-29.4189453125,83.31298828125,-5.55419921875
252668.05625425,1.0177001953125,0.5390625,0.6517333984375,-29.4189453125,83.31298828125,-5.55419921875
252668.059791833,1.0177001953125,0.56787109375,0.6517333984375,-29.4189453125,83.31298828125,-5.55419921875
252668.059858458,1.0177001953125,0.56787109375,0.7042236328125,-29.4189453125,83.31298828125,-5.55419921875
252668.086265833,1.0177001953125,0.56787109375,0.7042236328125,-33.38623046875,83.31298828125,-5.55419921875
252668.087831791,1.0181884765625,0.56787109375,0.7042236328125,-33.38623046875,83.31298828125,-5.55419921875
252668.088057208,1.0181884765625,0.5836181640625,0.7042236328125,-33.38623046875,83.31298828125,-5.55419921875
252668.088190416,1.0181884765625,0.5836181640625,0.6239013671875,-33.38623046875,83.31298828125,-5.55419921875
252668.102180833,1.0181884765625,0.5836181640625,0.6239013671875,-33.38623046875,59.4482421875,-5.55419921875
252668.102355916,1.0181884765625,0.5836181640625,0.6239013671875,-33.38623046875,59.4482421875,0.30517578125
252668.147769791,0.9344482421875,0.5836181640625,0.6239013671875,-33.38623046875,59.4482421875,0.30517578125
252668.147981166,0.9344482421875,0.4290771484375,0.6239013671875,-33.38623046875,59.4482421875,0.30517578125
252668.162532416,0.9344482421875,0.4290771484375,0.4129638671875,-33.38623046875,59.4482421875,0.30517578125
252668.162787,0.9344482421875,0.4290771484375,0.4129638671875,-3.2958984375,59.4482421875,0.30517578125
252668.162913041,0.9825439453125,0.4290771484375,0.4129638671875,-3.2958984375,59.4482421875,0.30517578125
252668.163306125,0.9825439453125,0.506103515625,0.4129638671875,-3.2958984375,59.4482421875,0.30517578125
252668.185986,0.9825439453125,0.506103515625,0.4129638671875,-3.2958984375,40.6494140625,0.30517578125
252668.186067458,0.9825439453125,0.506103515625,0.4129638671875,-3.2958984375,40.6494140625,3.72314453125
252668.206897416,0.9072265625,0.506103515625,0.4129638671875,-3.2958984375,40.6494140625,3.72314453125
252668.207060958,0.9072265625,0.4202880859375,0.4129638671875,-3.2958984375,40.6494140625,3.72314453125
252668.207689958,0.9072265625,0.4202880859375,0.2886962890625,-3.2958984375,40.6494140625,3.72314453125
252668.222143833,0.9072265625,0.4202880859375,0.2886962890625,-3.2958984375,25.08544921875,3.72314453125
252668.2222945,0.9072265625,0.4202880859375,0.2886962890625,-3.2958984375,25.08544921875,4.5166015625
252668.252079125,0.92626953125,0.4202880859375,0.2886962890625,-3.2958984375,25.08544921875,4.5166015625
252668.252247333,0.92626953125,0.5150146484375,0.2886962890625,-3.2958984375,25.08544921875,4.5166015625
252668.252912458,0.92626953125,0.5150146484375,0.3580322265625,-3.2958984375,25.08544921875,4.5166015625
252668.253052541,0.92626953125,0.5150146484375,0.3580322265625,-11.23046875,25.08544921875,4.5166015625
252668.268708708,0.8900146484375,0.5150146484375,0.3580322265625,-11.23046875,25.08544921875,4.5166015625
252668.268778416,0.8900146484375,0.4813232421875,0.3580322265625,-11.23046875,25.08544921875,4.5166015625
252668.268839583,0.8900146484375,0.4813232421875,0.287841796875,-11.23046875,25.08544921875,4.5166015625
252668.285923625,0.8900146484375,0.4813232421875,0.287841796875,-11.23046875,10.009765625,4.5166015625
252668.285994666,0.8900146484375,0.4813232421875,0.287841796875,-11.23046875,10.009765625,6.591796875
252668.312099125,0.843505859375,0.4813232421875,0.287841796875,-11.23046875,10.009765625,6.591796875
252668.312272166,0.843505859375,0.4456787109375,0.287841796875,-11.23046875,10.009765625,6.591796875
252668.318729541,0.843505859375,0.4456787109375,0.2320556640625,-11.23046875,10.009765625,6.591796875
252668.342191,0.843505859375,0.4456787109375,0.2320556640625,-11.23046875,4.638671875,6.591796875
252668.342370458,0.843505859375,0.4456787109375,0.2320556640625,-11.23046875,4.638671875,3.41796875
252668.342927166,0.904541015625,0.4456787109375,0.2320556640625,-11.23046875,4.638671875,3.41796875
252668.343077833,0.904541015625,0.5220947265625,0.2320556640625,-11.23046875,4.638671875,3.41796875
252668.357149375,0.904541015625,0.5220947265625,0.346435546875,-11.23046875,4.638671875,3.41796875
252668.357360625,0.904541015625,0.5220947265625,0.346435546875,-3.0517578125,4.638671875,3.41796875
252668.35746875,0.904541015625,0.5220947265625,0.346435546875,-3.0517578125,-3.60107421875,3.41796875
252668.386855416,0.9066162109375,0.5220947265625,0.346435546875,-3.0517578125,-3.60107421875,3.41796875
252668.387001958,0.9066162109375,0.5003662109375,0.346435546875,-3.0517578125,-3.60107421875,3.41796875
252668.387851041,0.9066162109375,0.5003662109375,0.3719482421875,-3.0517578125,-3.60107421875,3.41796875
252668.38796975,0.9066162109375,0.5003662109375,0.3719482421875,4.638671875,-3.60107421875,3.41796875
NEW_REP,,,,,,
252668.402178708,0.986083984375,0.5003662109375,0.3719482421875,4.638671875,-3.60107421875,3.41796875
252668.40235275,0.986083984375,0.595947265625,0.3719482421875,4.638671875,-3.60107421875,3.41796875
252668.402423875,0.986083984375,0.595947265625,0.604736328125,4.638671875,-3.60107421875,3.41796875
252668.462942291,0.986083984375,0.595947265625,0.604736328125,4.638671875,-16.357421875,3.41796875
252668.485378291,0.986083984375,0.595947265625,0.604736328125,4.638671875,-16.357421875,4.82177734375
252668.485471666,1.0723876953125,0.595947265625,0.604736328125,4.638671875,-16.357421875,4.82177734375
252668.485523916,1.0723876953125,0.65234375,0.604736328125,4.638671875,-16.357421875,4.82177734375
252668.491799583,1.0723876953125,0.65234375,0.604736328125,4.638671875,-29.72412109375,4.82177734375
252668.4918805,1.0723876953125,0.65234375,0.604736328125,4.638671875,-29.72412109375,10.1318359375
252668.507308208,1.09912109375,0.65234375,0.604736328125,4.638671875,-29.72412109375,10.1318359375
252668.507475083,1.09912109375,0.5579833984375,0.604736328125,4.638671875,-29.72412109375,10.1318359375
252668.507577583,1.09912109375,0.5579833984375,0.81201171875,4.638671875,-29.72412109375,10.1318359375
252668.536186375,1.1427001953125,0.5579833984375,0.81201171875,4.638671875,-29.72412109375,10.1318359375
252668.537850958,1.1427001953125,0.6297607421875,0.81201171875,4.638671875,-29.72412109375,10.1318359375
252668.538025791,1.1427001953125,0.6297607421875,0.835205078125,4.638671875,-29.72412109375,10.1318359375
252668.538119791,1.1427001953125,0.6297607421875,0.835205078125,53.16162109375,-29.72412109375,10.1318359375
252668.552231833,1.1390380859375,0.6297607421875,0.835205078125,53.16162109375,-29.72412109375,10.1318359375
252668.55230025,1.1390380859375,0.5380859375,0.835205078125,53.16162109375,-29.72412109375,10.1318359375
252668.553258916,1.1390380859375,0.5380859375,0.7576904296875,53.16162109375,-29.72412109375,10.1318359375
252668.569042416,1.1390380859375,0.5380859375,0.7576904296875,53.16162109375,-105.8349609375,10.1318359375
252668.569106416,1.1390380859375,0.5380859375,0.7576904296875,53.16162109375,-105.8349609375,3.23486328125
252668.585397625,1.1573486328125,0.5380859375,0.7576904296875,53.16162109375,-105.8349609375,3.23486328125
252668.585465,1.1573486328125,0.544921875,0.7576904296875,53.16162109375,-105.8349609375,3.23486328125
252668.585539625,1.1573486328125,0.544921875,0.751953125,53.16162109375,-105.8349609375,3.23486328125
252668.613366708,1.1573486328125,0.544921875,0.751953125,53.16162109375,-119.7509765625,3.23486328125
252668.613433583,1.1573486328125,0.544921875,0.751953125,53.16162109375,-119.7509765625,-1.5869140625
252668.613593541,1.1260986328125,0.544921875,0.751953125,53.16162109375,-119.7509765625,-1.5869140625
252668.643220458,1.1260986328125,0.544921875,0.758056640625,53.16162109375,-119.7509765625,-1.5869140625
252668.643411166,1.1260986328125,0.544921875,0.758056640625,30.57861328125,-119.7509765625,-1.5869140625
252668.643494916,1.1260986328125,0.544921875,0.758056640625,30.57861328125,-132.87353515625,-1.5869140625
252668.660025,1.0767822265625,0.544921875,0.758056640625,30.57861328125,-132.87353515625,-1.5869140625
252668.660228666,1.0767822265625,0.77783203125,0.758056640625,30.57861328125,-132.87353515625,-1.5869140625
252668.6603135,1.0767822265625,0.77783203125,0.7203369140625,30.57861328125,-132.87353515625,-1.5869140625
252668.672196625,1.0767822265625,0.77783203125,0.7203369140625,30.57861328125,-139.09912109375,-1.5869140625
252668.672318791,1.0767822265625,0.77783203125,0.7203369140625,30.57861328125,-139.09912109375,12.51220703125
252668.688687,0.993896484375,0.77783203125,0.7203369140625,30.57861328125,-139.09912109375,12.51220703125
252668.702121208,0.993896484375,0.662841796875,0.7203369140625,30.57861328125,-139.09912109375,12.51220703125
252668.702276333,0.993896484375,0.662841796875,0.7159423828125,30.57861328125,-139.09912109375,12.51220703125
252668.702361458,0.993896484375,0.662841796875,0.7159423828125,30.57861328125,-147.4609375,12.51220703125
252668.718534875,0.993896484375,0.662841796875,0.7159423828125,30.57861328125,-147.4609375,14.22119140625
252668.718590916,0.8837890625,0.662841796875,0.7159423828125,30.57861328125,-147.4609375,14.22119140625
252668.718796416,0.8837890625,0.6524658203125,0.7159423828125,30.57861328125,-147.4609375,14.22119140625
252668.718848208,0.8837890625,0.6524658203125,0.701904296875,30.57861328125,-147.4609375,14.22119140625
252668.735338833,0.8837890625,0.6524658203125,0.701904296875,30.57861328125,-149.10888671875,14.22119140625
252668.735408166,0.8837890625,0.6524658203125,0.701904296875,30.57861328125,-149.10888671875,15.31982421875
252668.751980916,0.7698974609375,0.6524658203125,0.701904296875,30.57861328125,-149.10888671875,15.31982421875
252668.752039083,0.7698974609375,0.7110595703125,0.701904296875,30.57861328125,-149.10888671875,15.31982421875
252668.752091,0.7698974609375,0.7110595703125,0.72216796875,30.57861328125,-149.10888671875,15.31982421875
252668.7622795,0.7698974609375,0.7110595703125,0.72216796875,30.57861328125,-140.44189453125,15.31982421875
252668.768588041,0.7698974609375,0.7110595703125,0.72216796875,30.57861328125,-140.44189453125,17.63916015625
252668.777387958,0.71240234375,0.7110595703125,0.72216796875,30.57861328125,-140.44189453125,17.63916015625
252668.77757425,0.71240234375,0.6939697265625,0.72216796875,30.57861328125,-140.44189453125,17.63916015625
252668.77764825,0.71240234375,0.6939697265625,0.7593994140625,30.57861328125,-140.44189453125,17.63916015625
252668.792348166,0.71240234375,0.6939697265625,0.7593994140625,30.57861328125,-131.103515625,17.63916015625
252668.792489666,0.71240234375,0.6939697265625,0.7593994140625,30.57861328125,-131.103515625,14.22119140625
252668.822207541,0.653564453125,0.6939697265625,0.7593994140625,30.57861328125,-131.103515625,14.22119140625
252668.822336375,0.653564453125,0.4541015625,0.7593994140625,30.57861328125,-131.103515625,14.22119140625
252668.822868625,0.653564453125,0.4541015625,0.7484130859375,30.57861328125,-131.103515625,14.22119140625
252668.838718166,0.653564453125,0.4541015625,0.7484130859375,186.46240234375,-131.103515625,14.22119140625
252668.868944583,0.5760498046875,0.4541015625,0.7484130859375,186.46240234375,-131.103515625,14.22119140625
252668.869003916,0.5760498046875,0.1890869140625,0.7484130859375,186.46240234375,-131.103515625,14.22119140625
252668.869055958,0.5760498046875,0.1890869140625,0.676025390625,186.46240234375,-131.103515625,14.22119140625
252668.869107625,0.5760498046875,0.1890869140625,0.676025390625,186.46240234375,-128.5400390625,14.22119140625
252668.869158666,0.5760498046875,0.1890869140625,0.676025390625,186.46240234375,-128.5400390625,-6.591796875
252668.927397458,0.4400634765625,0.1890869140625,0.676025390625,186.46240234375,-128.5400390625,-6.591796875
252668.927573583,0.4400634765625,0.2752685546875,0.676025390625,186.46240234375,-128.5400390625,-6.591796875
252668.928915333,0.4400634765625,0.2752685546875,0.6217041015625,186.46240234375,-128.5400390625,-6.591796875
252668.92909825,0.4400634765625,0.2752685546875,0.6217041015625,46.08154296875,-128.5400390625,-6.591796875
252668.952168708,0.3638916015625,0.2752685546875,0.6217041015625,46.08154296875,-128.5400390625,-6.591796875
252668.952235708,0.3638916015625,0.2730712890625,0.6217041015625,46.08154296875,-128.5400390625,-6.591796875
252668.95229575,0.3638916015625,0.2730712890625,0.535888671875,46.08154296875,-128.5400390625,-6.591796875
252668.986953958,0.3638916015625,0.2730712890625,0.535888671875,46.08154296875,-138.97705078125,-6.591796875
252668.988634208,0.3638916015625,0.2730712890625,0.535888671875,46.08154296875,-138.97705078125,-1.3427734375
252668.988786583,0.0677490234375,0.2730712890625,0.535888671875,46.08154296875,-138.97705078125,-1.3427734375
252668.988870666,0.0677490234375,0.0113525390625,0.535888671875,46.08154296875,-138.97705078125,-1.3427734375
252669.002754291,0.0677490234375,0.0113525390625,0.535888671875,46.08154296875,-141.17431640625,-1.3427734375
252669.002871583,0.0677490234375,0.0113525390625,0.535888671875,46.08154296875,-141.17431640625,10.55908203125
252669.018113083,-0.140625,0.0113525390625,0.535888671875,46.08154296875,-141.17431640625,10.55908203125
252669.018154833,-0.140625,0.083251953125,0.535888671875,46.08154296875,-141.17431640625,10.55908203125
252669.018220125,-0.140625,0.083251953125,0.139404296875,46.08154296875,-141.17431640625,10.55908203125
252669.034273208,-0.140625,0.083251953125,0.139404296875,46.08154296875,-119.384765625,10.55908203125
252669.03431575,-0.140625,0.083251953125,0.139404296875,46.08154296875,-119.384765625,21.484375
252669.061763625,-0.296142578125,0.083251953125,0.139404296875,46.08154296875,-119.384765625,21.484375
252669.067690125,-0.296142578125,0.0072021484375,0.139404296875,46.08154296875,-119.384765625,21.484375
252669.067837666,-0.296142578125,0.0072021484375,0.062255859375,46.08154296875,-119.384765625,21.484375
252669.067878,-0.296142578125,0.0072021484375,0.062255859375,18.85986328125,-119.384765625,21.484375
252669.076986666,-0.366455078125,0.0072021484375,0.062255859375,18.85986328125,-119.384765625,21.484375
252669.07708475,-0.366455078125,-0.123291015625,0.062255859375,18.85986328125,-119.384765625,21.484375
252669.077149416,-0.366455078125,-0.123291015625,-0.0228271484375,18.85986328125,-119.384765625,21.484375
252669.106229958,-0.366455078125,-0.123291015625,-0.0228271484375,18.85986328125,-46.69189453125,21.484375
252669.1181755,-0.366455078125,-0.123291015625,-0.0228271484375,18.85986328125,-46.69189453125,28.1982421875
252669.118229375,-0.4158935546875,-0.123291015625,-0.0228271484375,18.85986328125,-46.69189453125,28.1982421875
252669.118276333,-0.4158935546875,-0.203857421875,-0.0228271484375,18.85986328125,-46.69189453125,28.1982421875
252669.122049833,-0.4158935546875,-0.203857421875,-0.0228271484375,18.85986328125,-19.71435546875,28.1982421875
252669.122151375,-0.4158935546875,-0.203857421875,-0.0228271484375,18.85986328125,-19.71435546875,25.87890625
252669.152152125,-0.3609619140625,-0.203857421875,-0.0228271484375,18.85986328125,-19.71435546875,25.87890625
