Timestamp,Accel_X,Accel_Y,Accel_Z,Gyro_X,Gyro_Y,Gyro_Z
21850.555945958,0.043701171875,0.0,0.0,0.0,0.0,0.0
21850.55621475,0.0426025390625,0.0,0.0,0.0,0.0,0.0
21850.585400375,0.0439453125,0.0,0.0,0.0,0.0,0.0
21850.585696125,0.0439453125,0.07763671875,0.0,0.0,0.0,0.0
21850.615834416,0.0418701171875,0.07763671875,0.0,0.0,0.0,0.0
21850.616076,0.0418701171875,0.0667724609375,0.0,0.0,0.0,0.0
21850.662592083,0.04345703125,0.0667724609375,0.0,0.0,0.0,0.0
21850.66661275,0.04345703125,0.07470703125,0.0,0.0,0.0,0.0
21850.666694625,0.0426025390625,0.07470703125,0.0,0.0,0.0,0.0
21850.666763416,0.0426025390625,0.0816650390625,0.0,0.0,0.0,0.0
21850.691324541,0.0400390625,0.0816650390625,0.0,0.0,0.0,0.0
21850.691389958,0.0400390625,0.0743408203125,0.0,0.0,0.0,0.0
21850.70835625,0.043701171875,0.0743408203125,0.0,0.0,0.0,0.0
21850.70842225,0.043701171875,0.0751953125,0.0,0.0,0.0,0.0
21850.724332208,0.043701171875,0.0751953125,0.9691162109375,0.0,0.0,0.0
21850.741279833,0.0426025390625,0.0751953125,0.9691162109375,0.0,0.0,0.0
21850.74138525,0.0426025390625,0.080810546875,0.9691162109375,0.0,0.0,0.0
21850.750539375,0.0426025390625,0.080810546875,0.9691162109375,1.708984375,0.0,0.0
21850.765705291,0.0426025390625,0.080810546875,0.9691162109375,1.708984375,0.30517578125,0.0
21850.780472208,0.0352783203125,0.080810546875,0.9691162109375,1.708984375,0.30517578125,0.0
21850.810815208,0.0352783203125,0.0771484375,0.9691162109375,1.708984375,0.30517578125,0.0
21850.81102225,0.0352783203125,0.0771484375,0.9691162109375,1.708984375,-0.06103515625,0.0
21850.811132083,0.0352783203125,0.0771484375,0.9691162109375,1.708984375,-0.06103515625,0.48828125
21850.826841041,0.04052734375,0.0771484375,0.9691162109375,1.708984375,-0.06103515625,0.48828125
21850.841203666,0.04052734375,0.0858154296875,0.9691162109375,1.708984375,-0.06103515625,0.48828125
21850.841265,0.04052734375,0.0858154296875,0.96630859375,1.708984375,-0.06103515625,0.48828125
21850.84305875,0.04052734375,0.0858154296875,0.96630859375,1.708984375,-0.06103515625,0.79345703125
21850.857001125,0.04345703125,0.0858154296875,0.96630859375,1.708984375,-0.06103515625,0.79345703125
21850.85705025,0.04345703125,0.0772705078125,0.96630859375,1.708984375,-0.06103515625,0.79345703125
21850.857090083,0.04345703125,0.0772705078125,0.9669189453125,1.708984375,-0.06103515625,0.79345703125
21850.873423958,0.04345703125,0.0772705078125,0.9669189453125,1.708984375,-0.6103515625,0.79345703125
21850.873471291,0.04345703125,0.0772705078125,0.9669189453125,1.708984375,-0.6103515625,0.67138671875
21850.900790833,0.0445556640625,0.0772705078125,0.9669189453125,1.708984375,-0.6103515625,0.67138671875
21850.906415958,0.0445556640625,0.08203125,0.9669189453125,1.708984375,-0.6103515625,0.67138671875
21850.906497833,0.0445556640625,0.08203125,0.96728515625,1.708984375,-0.6103515625,0.67138671875
21850.90653375,0.0445556640625,0.08203125,0.96728515625,1.708984375,-0.42724609375,0.67138671875
21850.931714583,0.040283203125,0.08203125,0.96728515625,1.708984375,-0.42724609375,0.67138671875
21850.931799875,0.040283203125,0.074951171875,0.96728515625,1.708984375,-0.42724609375,0.67138671875
21850.939811916,0.040283203125,0.074951171875,0.9703369140625,1.708984375,-0.42724609375,0.67138671875
21850.939850125,0.040283203125,0.074951171875,0.9703369140625,2.44140625,-0.42724609375,0.67138671875
21850.962508083,0.0413818359375,0.074951171875,0.9703369140625,2.44140625,-0.42724609375,0.67138671875
21850.9904325,0.0413818359375,0.0775146484375,0.9703369140625,2.44140625,-0.42724609375,0.67138671875
21850.990555791,0.0413818359375,0.0775146484375,0.9677734375,2.44140625,-0.42724609375,0.67138671875
21850.990626291,0.0413818359375,0.0775146484375,0.9677734375,2.44140625,-0.54931640625,0.67138671875
21850.991347333,0.0413818359375,0.0775146484375,0.9677734375,2.44140625,-0.54931640625,1.64794921875
21850.991429458,0.0411376953125,0.0775146484375,0.9677734375,2.44140625,-0.54931640625,1.64794921875
21851.006612708,0.0411376953125,0.081298828125,0.9677734375,2.44140625,-0.54931640625,1.64794921875
21851.006651333,0.0411376953125,0.081298828125,0.968994140625,2.44140625,-0.54931640625,1.64794921875
21851.006686541,0.0411376953125,0.081298828125,0.968994140625,1.52587890625,-0.54931640625,1.64794921875
21851.03477675,0.0411376953125,0.081298828125,0.968994140625,1.52587890625,-0.54931640625,1.708984375
21851.056575208,0.0423583984375,0.081298828125,0.968994140625,1.52587890625,-0.54931640625,1.708984375
21851.056612791,0.0423583984375,0.0772705078125,0.968994140625,1.52587890625,-0.54931640625,1.708984375
21851.056647708,0.0423583984375,0.0772705078125,0.9681396484375,1.52587890625,-0.54931640625,1.708984375
21851.081167583,0.0423583984375,0.0772705078125,0.9681396484375,1.52587890625,-0.79345703125,1.708984375
21851.08129725,0.0423583984375,0.0772705078125,0.9681396484375,1.52587890625,-0.79345703125,1.52587890625
21851.081362333,0.0406494140625,0.0772705078125,0.9681396484375,1.52587890625,-0.79345703125,1.52587890625
21851.082578208,0.0406494140625,0.0858154296875,0.9681396484375,1.52587890625,-0.79345703125,1.52587890625
21851.095176458,0.0406494140625,0.0858154296875,0.9681396484375,1.52587890625,-0.79345703125,1.52587890625
21851.095243375,0.0406494140625,0.0858154296875,0.9681396484375,1.52587890625,-0.79345703125,1.28173828125
21851.140583041,0.039794921875,0.0858154296875,0.9681396484375,1.52587890625,-0.79345703125,1.28173828125
21851.1406305,0.039794921875,0.0751953125,0.9681396484375,1.52587890625,-0.79345703125,1.28173828125
21851.140721291,0.039794921875,0.0751953125,0.9676513671875,1.52587890625,-0.79345703125,1.28173828125
21851.141425458,0.039794921875,0.0751953125,0.9676513671875,2.685546875,-0.79345703125,1.28173828125
21851.157050916,0.04248046875,0.0751953125,0.9676513671875,2.685546875,-0.79345703125,1.28173828125
21851.157196458,0.04248046875,0.0760498046875,0.9676513671875,2.685546875,-0.79345703125,1.28173828125
21851.15726475,0.04248046875,0.0760498046875,0.9693603515625,2.685546875,-0.79345703125,1.28173828125
21851.185316208,0.04248046875,0.0760498046875,0.9693603515625,2.685546875,-0.6103515625,1.28173828125
21851.185423208,0.04248046875,0.0760498046875,0.9693603515625,2.685546875,-0.6103515625,1.708984375
21851.207115666,0.0408935546875,0.0760498046875,0.9693603515625,2.685546875,-0.6103515625,1.708984375
21851.207161625,0.0408935546875,0.0819091796875,0.9693603515625,2.685546875,-0.6103515625,1.708984375
21851.207202625,0.0408935546875,0.0819091796875,0.9696044921875,2.685546875,-0.6103515625,1.708984375
21851.25929425,0.0428466796875,0.0819091796875,0.9696044921875,2.685546875,-0.6103515625,1.708984375
21851.261587041,0.0428466796875,0.078369140625,0.9696044921875,2.685546875,-0.6103515625,1.708984375
21851.261694625,0.0428466796875,0.078369140625,0.9652099609375,2.685546875,-0.6103515625,1.708984375
21851.264835333,0.0428466796875,0.078369140625,0.9652099609375,1.708984375,-0.6103515625,1.708984375
21851.320172291,0.0423583984375,0.078369140625,0.9652099609375,1.708984375,-0.6103515625,1.708984375
21851.320361791,0.0423583984375,0.0787353515625,0.9652099609375,1.708984375,-0.6103515625,1.708984375
21851.321447041,0.0423583984375,0.0787353515625,0.9696044921875,1.708984375,-0.6103515625,1.708984375
21851.321632458,0.0423583984375,0.0787353515625,0.9696044921875,1.708984375,-0.732421875,1.708984375
21851.336801875,0.0408935546875,0.0787353515625,0.9696044921875,1.708984375,-0.732421875,1.708984375
21851.352484083,0.0408935546875,0.0760498046875,0.9696044921875,1.708984375,-0.732421875,1.708984375
21851.352752333,0.0408935546875,0.0760498046875,0.966796875,1.708984375,-0.732421875,1.708984375
21851.352879708,0.0408935546875,0.0760498046875,0.966796875,1.708984375,-0.67138671875,1.708984375
21851.353051708,0.0408935546875,0.0760498046875,0.966796875,1.708984375,-0.67138671875,1.77001953125
21851.380558,0.0413818359375,0.0760498046875,0.966796875,1.708984375,-0.67138671875,1.77001953125
21851.385142166,0.0413818359375,0.0843505859375,0.966796875,1.708984375,-0.67138671875,1.77001953125
21851.385280708,0.0413818359375,0.0843505859375,0.9725341796875,1.708984375,-0.67138671875,1.77001953125
21851.395757666,0.0413818359375,0.0843505859375,0.9725341796875,-0.06103515625,-0.67138671875,1.77001953125
21851.409072041,0.04248046875,0.0843505859375,0.9725341796875,-0.06103515625,-0.67138671875,1.77001953125
21851.409223083,0.04248046875,0.089111328125,0.9725341796875,-0.06103515625,-0.67138671875,1.77001953125
21851.409311125,0.04248046875,0.089111328125,0.97119140625,-0.06103515625,-0.67138671875,1.77001953125
21851.4103155,0.04248046875,0.089111328125,0.97119140625,-0.06103515625,-0.48828125,1.77001953125
21851.410517916,0.04248046875,0.089111328125,0.97119140625,-0.06103515625,-0.48828125,1.64794921875
21851.441485916,0.03759765625,0.089111328125,0.97119140625,-0.06103515625,-0.48828125,1.64794921875
21851.441761458,0.03759765625,0.065673828125,0.97119140625,-0.06103515625,-0.48828125,1.64794921875
21851.441844708,0.03759765625,0.065673828125,0.9691162109375,-0.06103515625,-0.48828125,1.64794921875
21851.442804083,0.03759765625,0.065673828125,0.9691162109375,0.91552734375,-0.48828125,1.64794921875
21851.458783625,0.0390625,0.065673828125,0.9691162109375,0.91552734375,-0.48828125,1.64794921875
21851.458859416,0.0390625,0.0823974609375,0.9691162109375,0.91552734375,-0.48828125,1.64794921875
21851.458926125,0.0390625,0.0823974609375,0.9666748046875,0.91552734375,-0.48828125,1.64794921875
21851.475730958,0.0390625,0.0823974609375,0.9666748046875,0.91552734375,-0.42724609375,1.64794921875
21851.486338333,0.0390625,0.0823974609375,0.9666748046875,0.91552734375,-0.42724609375,1.220703125
21851.491641333,0.03662109375,0.0823974609375,0.9666748046875,0.91552734375,-0.42724609375,1.220703125
21851.491759291,0.03662109375,0.0966796875,0.9666748046875,0.91552734375,-0.42724609375,1.220703125
21851.500546791,0.03662109375,0.0966796875,0.96728515625,0.91552734375,-0.42724609375,1.220703125
21851.500757375,0.03662109375,0.0966796875,0.96728515625,0.91552734375,-0.6103515625,1.220703125
21851.516724791,0.03662109375,0.0966796875,0.96728515625,0.91552734375,-0.6103515625,0.9765625
21851.517035,0.0418701171875,0.0966796875,0.96728515625,0.91552734375,-0.6103515625,0.9765625
21851.517163458,0.0418701171875,0.0955810546875,0.96728515625,0.91552734375,-0.6103515625,0.9765625
21851.517247,0.0418701171875,0.0955810546875,0.97607421875,0.91552734375,-0.6103515625,0.9765625
21851.531868666,0.0418701171875,0.0955810546875,0.97607421875,0.91552734375,-0.8544921875,0.9765625
21851.5610855,0.0418701171875,0.0955810546875,0.97607421875,0.91552734375,-0.8544921875,0.8544921875
21851.56128625,0.049072265625,0.0955810546875,0.97607421875,0.91552734375,-0.8544921875,0.8544921875
21851.591674416,0.049072265625,0.0948486328125,0.97607421875,0.91552734375,-0.8544921875,0.8544921875
21851.59197425,0.049072265625,0.0948486328125,0.990234375,0.91552734375,-0.8544921875,0.8544921875
21851.606100625,0.049072265625,0.0948486328125,0.990234375,0.91552734375,-1.64794921875,0.8544921875
21851.606208958,0.049072265625,0.0948486328125,0.990234375,0.91552734375,-1.64794921875,0.6103515625
21851.625502916,0.0306396484375,0.0948486328125,0.990234375,0.91552734375,-1.64794921875,0.6103515625
21851.625596333,0.0306396484375,0.1163330078125,0.990234375,0.91552734375,-1.64794921875,0.6103515625
21851.636371708,0.0306396484375,0.1163330078125,0.990234375,0.91552734375,-3.0517578125,0.6103515625
21851.642391708,0.0306396484375,0.1163330078125,0.990234375,0.91552734375,-3.0517578125,3.23486328125
21851.665821958,0.029052734375,0.1163330078125,0.990234375,0.91552734375,-3.0517578125,3.23486328125
21851.667556833,0.029052734375,0.107421875,0.990234375,0.91552734375,-3.0517578125,3.23486328125
21851.667726416,0.029052734375,0.107421875,0.9510498046875,0.91552734375,-3.0517578125,3.23486328125
21851.696566791,0.0325927734375,0.107421875,0.9510498046875,0.91552734375,-3.0517578125,3.23486328125
21851.696888625,0.0325927734375,0.1278076171875,0.9510498046875,0.91552734375,-3.0517578125,3.23486328125
21851.697002375,0.0325927734375,0.1278076171875,0.951416015625,0.91552734375,-3.0517578125,3.23486328125
21851.710422958,0.0325927734375,0.1278076171875,0.951416015625,0.91552734375,-3.0517578125,7.62939453125
21851.725387708,0.0355224609375,0.1278076171875,0.951416015625,0.91552734375,-3.0517578125,7.62939453125
21851.742740583,0.0355224609375,0.104248046875,0.951416015625,0.91552734375,-3.0517578125,7.62939453125
21851.743013791,0.0355224609375,0.104248046875,0.9515380859375,0.91552734375,-3.0517578125,7.62939453125
21851.74309975,0.0355224609375,0.104248046875,0.9515380859375,0.91552734375,-1.46484375,7.62939453125
21851.74326225,0.0355224609375,0.104248046875,0.9515380859375,0.91552734375,-1.46484375,5.7373046875
21851.758630875,0.0389404296875,0.104248046875,0.9515380859375,0.91552734375,-1.46484375,5.7373046875
21851.775610458,0.0389404296875,0.1190185546875,0.9515380859375,0.91552734375,-1.46484375,5.7373046875
21851.775703708,0.0389404296875,0.1190185546875,0.968017578125,0.91552734375,-1.46484375,5.7373046875
21851.775789791,0.0389404296875,0.1190185546875,0.968017578125,0.91552734375,-2.62451171875,5.7373046875
21851.775879833,0.0389404296875,0.1190185546875,0.968017578125,0.91552734375,-2.62451171875,3.90625
21851.799452541,0.03564453125,0.1190185546875,0.968017578125,0.91552734375,-2.62451171875,3.90625
21851.801264125,0.03564453125,0.1058349609375,0.968017578125,0.91552734375,-2.62451171875,3.90625
21851.801492541,0.03564453125,0.1058349609375,0.9891357421875,0.91552734375,-2.62451171875,3.90625
21851.801596833,0.03564453125,0.1058349609375,0.9891357421875,-3.23486328125,-2.62451171875,3.90625
21851.815447875,0.0299072265625,0.1058349609375,0.9891357421875,-3.23486328125,-2.62451171875,3.90625
21851.815667666,0.0299072265625,0.099365234375,0.9891357421875,-3.23486328125,-2.62451171875,3.90625
21851.815758708,0.0299072265625,0.099365234375,0.9954833984375,-3.23486328125,-2.62451171875,3.90625
21851.830533416,0.0299072265625,0.099365234375,0.9954833984375,-3.23486328125,-4.0283203125,3.90625
21851.83070275,0.0299072265625,0.099365234375,0.9954833984375,-3.23486328125,-4.0283203125,0.91552734375
21851.906188375,0.035888671875,0.099365234375,0.9954833984375,-3.23486328125,-4.0283203125,0.91552734375
21851.920922833,0.035888671875,0.113525390625,0.9954833984375,-3.23486328125,-4.0283203125,0.91552734375
21851.921307,0.035888671875,0.113525390625,1.005126953125,-3.23486328125,-4.0283203125,0.91552734375
21851.921426416,0.035888671875,0.113525390625,1.005126953125,-3.23486328125,-4.45556640625,0.91552734375
21851.966866333,0.0147705078125,0.113525390625,1.005126953125,-3.23486328125,-4.45556640625,0.91552734375
21851.969128791,0.0147705078125,0.113525390625,0.9605712890625,-3.23486328125,-4.45556640625,0.91552734375
21851.969699333,0.0147705078125,0.113525390625,0.9605712890625,-25.69580078125,-4.45556640625,0.91552734375
21851.969978958,0.0147705078125,0.113525390625,0.9605712890625,-25.69580078125,-5.18798828125,0.91552734375
21851.992210041,0.0506591796875,0.113525390625,0.9605712890625,-25.69580078125,-5.18798828125,0.91552734375
21851.992322333,0.0506591796875,0.19482421875,0.9605712890625,-25.69580078125,-5.18798828125,0.91552734375
21851.996454708,0.0506591796875,0.19482421875,0.9605712890625,-18.12744140625,-5.18798828125,0.91552734375
21851.996734166,0.0506591796875,0.19482421875,0.9605712890625,-18.12744140625,1.708984375,0.91552734375
21851.9968655,0.0506591796875,0.19482421875,0.9605712890625,-18.12744140625,1.708984375,-1.3427734375
21852.025593041,0.0499267578125,0.19482421875,0.9605712890625,-18.12744140625,1.708984375,-1.3427734375
21852.025791583,0.0499267578125,0.2020263671875,0.9605712890625,-18.12744140625,1.708984375,-1.3427734375
21852.026626416,0.0499267578125,0.2020263671875,0.96044921875,-18.12744140625,1.708984375,-1.3427734375
21852.026804166,0.0499267578125,0.2020263671875,0.96044921875,-33.8134765625,1.708984375,-1.3427734375
21852.042172541,0.027099609375,0.2020263671875,0.96044921875,-33.8134765625,1.708984375,-1.3427734375
21852.042278833,0.027099609375,0.3382568359375,0.96044921875,-33.8134765625,1.708984375,-1.3427734375
21852.059122,0.027099609375,0.3382568359375,0.91162109375,-33.8134765625,1.708984375,-1.3427734375
21852.059218625,0.027099609375,0.3382568359375,0.91162109375,-33.8134765625,3.662109375,-1.3427734375
21852.059303958,0.027099609375,0.3382568359375,0.91162109375,-33.8134765625,3.662109375,-1.708984375
21852.085768541,0.0323486328125,0.3382568359375,0.91162109375,-33.8134765625,3.662109375,-1.708984375
21852.091853333,0.0323486328125,0.3099365234375,0.91162109375,-33.8134765625,3.662109375,-1.708984375
21852.100797375,0.0323486328125,0.3099365234375,0.975341796875,-33.8134765625,3.662109375,-1.708984375
21852.101058458,0.0323486328125,0.3099365234375,0.975341796875,-3.72314453125,3.662109375,-1.708984375
21852.101182708,0.0677490234375,0.3099365234375,0.975341796875,-3.72314453125,3.662109375,-1.708984375
21852.130020458,0.0677490234375,0.1767578125,0.975341796875,-3.72314453125,3.662109375,-1.708984375
21852.134052625,0.0677490234375,0.1767578125,0.975341796875,-11.16943359375,3.662109375,-1.708984375
21852.134180833,0.0677490234375,0.1767578125,0.975341796875,-11.16943359375,-0.06103515625,-1.708984375
21852.134264416,0.0677490234375,0.1767578125,0.975341796875,-11.16943359375,-0.06103515625,3.84521484375
21852.162282208,0.0341796875,0.1767578125,0.975341796875,-11.16943359375,-0.06103515625,3.84521484375
21852.162492875,0.0341796875,0.2828369140625,0.975341796875,-11.16943359375,-0.06103515625,3.84521484375
21852.162563958,0.0341796875,0.2828369140625,0.89013671875,-11.16943359375,-0.06103515625,3.84521484375
21852.191420083,0.0341796875,0.2828369140625,0.89013671875,-11.16943359375,-0.06103515625,2.38037109375
21852.206196583,0.0443115234375,0.2828369140625,0.89013671875,-11.16943359375,-0.06103515625,2.38037109375
21852.206434833,0.0443115234375,0.2420654296875,0.89013671875,-11.16943359375,-0.06103515625,2.38037109375
21852.206559541,0.0443115234375,0.2420654296875,0.9371337890625,-11.16943359375,-0.06103515625,2.38037109375
21852.220413875,0.0443115234375,0.2420654296875,0.9371337890625,-11.16943359375,-0.06103515625,-1.46484375
21852.281007166,0.0120849609375,0.2420654296875,0.9371337890625,-11.16943359375,-0.06103515625,-1.46484375
21852.28370575,0.0120849609375,0.33056640625,0.9371337890625,-11.16943359375,-0.06103515625,-1.46484375
21852.284044625,0.0120849609375,0.33056640625,0.925048828125,-11.16943359375,-0.06103515625,-1.46484375
21852.284188333,0.0120849609375,0.33056640625,0.925048828125,-29.1748046875,-0.06103515625,-1.46484375
21852.30814925,0.02880859375,0.33056640625,0.925048828125,-29.1748046875,-0.06103515625,-1.46484375
21852.308224833,0.02880859375,0.3084716796875,0.925048828125,-29.1748046875,-0.06103515625,-1.46484375
21852.308309833,0.02880859375,0.3084716796875,0.939453125,-29.1748046875,-0.06103515625,-1.46484375
21852.310254833,0.02880859375,0.3084716796875,0.939453125,-29.1748046875,-9.521484375,-1.46484375
21852.3103935,0.02880859375,0.3084716796875,0.939453125,-29.1748046875,-9.521484375,-6.04248046875
21852.340289458,0.018310546875,0.3084716796875,0.939453125,-29.1748046875,-9.521484375,-6.04248046875
21852.340430791,0.018310546875,0.3216552734375,0.939453125,-29.1748046875,-9.521484375,-6.04248046875
21852.341252125,0.018310546875,0.3216552734375,0.976318359375,-29.1748046875,-9.521484375,-6.04248046875
21852.356976625,0.018310546875,0.3216552734375,0.976318359375,-29.1748046875,-10.55908203125,-6.04248046875
21852.374814791,0.0234375,0.3216552734375,0.976318359375,-29.1748046875,-10.55908203125,-6.04248046875
21852.37490025,0.0234375,0.358642578125,0.976318359375,-29.1748046875,-10.55908203125,-6.04248046875
21852.374965958,0.0234375,0.358642578125,1.126708984375,-29.1748046875,-10.55908203125,-6.04248046875
21852.391532166,0.0234375,0.358642578125,1.126708984375,-29.1748046875,-9.521484375,-6.04248046875
21852.391596791,0.0234375,0.358642578125,1.126708984375,-29.1748046875,-9.521484375,-2.5634765625
21852.401273333,0.0216064453125,0.358642578125,1.126708984375,-29.1748046875,-9.521484375,-2.5634765625
21852.401449916,0.0216064453125,0.4107666015625,1.126708984375,-29.1748046875,-9.521484375,-2.5634765625
21852.40157825,0.0216064453125,0.4107666015625,1.1689453125,-29.1748046875,-9.521484375,-2.5634765625
21852.415593625,0.0216064453125,0.4107666015625,1.1689453125,-29.1748046875,-14.16015625,-2.5634765625
21852.415746125,0.0216064453125,0.4107666015625,1.1689453125,-29.1748046875,-14.16015625,3.47900390625
21852.491534208,-0.003173828125,0.4107666015625,1.1689453125,-29.1748046875,-14.16015625,3.47900390625
21852.491984625,-0.003173828125,0.4588623046875,1.1689453125,-29.1748046875,-14.16015625,3.47900390625
21852.497555083,-0.003173828125,0.4588623046875,1.137451171875,-29.1748046875,-14.16015625,3.47900390625
21852.497668333,-0.003173828125,0.4588623046875,1.137451171875,-29.1748046875,-22.3388671875,3.47900390625
21852.507156625,-0.008544921875,0.4588623046875,1.137451171875,-29.1748046875,-22.3388671875,3.47900390625
21852.507493708,-0.008544921875,0.5286865234375,1.137451171875,-29.1748046875,-22.3388671875,3.47900390625
21852.507655125,-0.008544921875,0.5286865234375,1.14990234375,-29.1748046875,-22.3388671875,3.47900390625
21852.524935166,-0.008544921875,0.5286865234375,1.14990234375,-29.1748046875,-31.55517578125,3.47900390625
21852.525029583,-0.008544921875,0.5286865234375,1.14990234375,-29.1748046875,-31.55517578125,12.0849609375
21852.550413625,-0.083251953125,0.5286865234375,1.14990234375,-29.1748046875,-31.55517578125,12.0849609375
21852.550574375,-0.083251953125,0.8043212890625,1.14990234375,-29.1748046875,-31.55517578125,12.0849609375
21852.551214458,-0.083251953125,0.8043212890625,1.00048828125,-29.1748046875,-31.55517578125,12.0849609375
21852.551351333,-0.083251953125,0.8043212890625,1.00048828125,8.60595703125,-31.55517578125,12.0849609375
21852.580770541,-0.111328125,0.8043212890625,1.00048828125,8.60595703125,-31.55517578125,12.0849609375
21852.5824105,-0.111328125,0.822509765625,1.00048828125,8.60595703125,-31.55517578125,12.0849609375
21852.582640416,-0.111328125,0.822509765625,0.9759521484375,8.60595703125,-31.55517578125,12.0849609375
21852.58276525,-0.111328125,0.822509765625,0.9759521484375,46.08154296875,-31.55517578125,12.0849609375
21852.608293791,-0.16455078125,0.822509765625,0.9759521484375,46.08154296875,-31.55517578125,12.0849609375
21852.608375,-0.16455078125,0.7725830078125,0.9759521484375,46.08154296875,-31.55517578125,12.0849609375
21852.625168208,-0.16455078125,0.7725830078125,0.96923828125,46.08154296875,-31.55517578125,12.0849609375
21852.626843041,-0.16455078125,0.7725830078125,0.96923828125,46.08154296875,-66.5283203125,12.0849609375
21852.62705325,-0.16455078125,0.7725830078125,0.96923828125,46.08154296875,-66.5283203125,39.36767578125
21852.627157166,-0.23779296875,0.7725830078125,0.96923828125,46.08154296875,-66.5283203125,39.36767578125
21852.641388208,-0.23779296875,0.7725830078125,0.9464111328125,46.08154296875,-66.5283203125,39.36767578125
21852.641462208,-0.23779296875,0.7725830078125,0.9464111328125,70.9228515625,-66.5283203125,39.36767578125
21852.641533666,-0.23779296875,0.7725830078125,0.9464111328125,70.9228515625,-69.9462890625,39.36767578125
21852.701384541,-0.341552734375,0.7725830078125,0.9464111328125,70.9228515625,-69.9462890625,39.36767578125
21852.701713375,-0.341552734375,0.6837158203125,0.9464111328125,70.9228515625,-69.9462890625,39.36767578125
21852.701827041,-0.341552734375,0.6837158203125,0.91748046875,70.9228515625,-69.9462890625,39.36767578125
21852.706381875,-0.341552734375,0.6837158203125,0.91748046875,91.85791015625,-69.9462890625,39.36767578125
21852.716078291,-0.368408203125,0.6837158203125,0.91748046875,91.85791015625,-69.9462890625,39.36767578125
21852.716325875,-0.368408203125,0.6319580078125,0.91748046875,91.85791015625,-69.9462890625,39.36767578125
21852.725139875,-0.368408203125,0.6319580078125,0.85107421875,91.85791015625,-69.9462890625,39.36767578125
21852.764073041,-0.368408203125,0.6319580078125,0.85107421875,91.85791015625,-63.78173828125,39.36767578125
21852.768838791,-0.368408203125,0.6319580078125,0.85107421875,91.85791015625,-63.78173828125,52.1240234375
21852.768976791,-0.41259765625,0.6319580078125,0.85107421875,91.85791015625,-63.78173828125,52.1240234375
21852.821650208,-0.41259765625,0.6319580078125,0.7337646484375,91.85791015625,-63.78173828125,52.1240234375
21852.82202575,-0.41259765625,0.6319580078125,0.7337646484375,102.72216796875,-63.78173828125,52.1240234375
21852.822154083,-0.41259765625,0.6319580078125,0.7337646484375,102.72216796875,-52.001953125,52.1240234375
21852.841824416,-0.4290771484375,0.6319580078125,0.7337646484375,102.72216796875,-52.001953125,52.1240234375
21852.850545666,-0.4290771484375,0.6319580078125,0.556396484375,102.72216796875,-52.001953125,52.1240234375
21852.880125958,-0.4290771484375,0.6319580078125,0.556396484375,84.41162109375,-52.001953125,52.1240234375
21852.880329875,-0.4290771484375,0.6319580078125,0.556396484375,84.41162109375,-51.57470703125,52.1240234375
21852.910793208,-0.361328125,0.6319580078125,0.556396484375,84.41162109375,-51.57470703125,52.1240234375
21852.917661583,-0.361328125,0.6319580078125,0.35400390625,84.41162109375,-51.57470703125,52.1240234375
21852.917756541,-0.361328125,0.6319580078125,0.35400390625,84.41162109375,-43.39599609375,52.1240234375
21852.917841875,-0.361328125,0.6319580078125,0.35400390625,84.41162109375,-43.39599609375,-2.44140625
21852.925411875,-0.281982421875,0.6319580078125,0.35400390625,84.41162109375,-43.39599609375,-2.44140625
21852.925630166,-0.281982421875,0.076171875,0.35400390625,84.41162109375,-43.39599609375,-2.44140625
21852.925750458,-0.281982421875,0.076171875,0.1561279296875,84.41162109375,-43.39599609375,-2.44140625
21852.941787291,-0.281982421875,0.076171875,0.1561279296875,84.41162109375,-43.39599609375,-24.71923828125
21852.985992041,-0.263671875,0.076171875,0.1561279296875,84.41162109375,-43.39599609375,-24.71923828125
21852.98619625,-0.263671875,0.0404052734375,0.1561279296875,84.41162109375,-43.39599609375,-24.71923828125
21853.001886333,-0.263671875,0.0404052734375,0.0716552734375,84.41162109375,-43.39599609375,-24.71923828125
21853.002068625,-0.263671875,0.0404052734375,0.0716552734375,84.41162109375,16.2353515625,-24.71923828125
21853.02500075,-0.213623046875,0.0404052734375,0.0716552734375,84.41162109375,16.2353515625,-24.71923828125
21853.02508075,-0.213623046875,0.08984375,0.0716552734375,84.41162109375,16.2353515625,-24.71923828125
21853.02515425,-0.213623046875,0.08984375,0.0716552734375,-26.42822265625,16.2353515625,-24.71923828125
21853.025223458,-0.213623046875,0.08984375,0.0716552734375,-26.42822265625,47.42431640625,-24.71923828125
21853.060870875,-0.1422119140625,0.08984375,0.0716552734375,-26.42822265625,47.42431640625,-24.71923828125
21853.061070291,-0.1422119140625,0.1124267578125,0.0716552734375,-26.42822265625,47.42431640625,-24.71923828125
21853.062177208,-0.1422119140625,0.1124267578125,0.1878662109375,-26.42822265625,47.42431640625,-24.71923828125
21853.066880916,-0.1422119140625,0.1124267578125,0.1878662109375,-66.650390625,47.42431640625,-24.71923828125
21853.092022125,-0.145751953125,0.1124267578125,0.1878662109375,-66.650390625,47.42431640625,-24.71923828125
21853.106661958,-0.145751953125,0.299560546875,0.1878662109375,-66.650390625,47.42431640625,-24.71923828125
21853.110592666,-0.145751953125,0.299560546875,0.2437744140625,-66.650390625,47.42431640625,-24.71923828125
21853.1107375,-0.145751953125,0.299560546875,0.2437744140625,-66.650390625,77.1484375,-24.71923828125
21853.110846083,-0.145751953125,0.299560546875,0.2437744140625,-66.650390625,77.1484375,-60.546875
21853.14965275,-0.05419921875,0.299560546875,0.2437744140625,-66.650390625,77.1484375,-60.546875
21853.167197083,-0.05419921875,0.478759765625,0.2437744140625,-66.650390625,77.1484375,-60.546875
21853.167401041,-0.05419921875,0.478759765625,0.5440673828125,-66.650390625,77.1484375,-60.546875
21853.167513416,-0.05419921875,0.478759765625,0.5440673828125,-99.42626953125,77.1484375,-60.546875
21853.181367416,-0.105224609375,0.478759765625,0.5440673828125,-99.42626953125,77.1484375,-60.546875
21853.210578375,-0.105224609375,0.5533447265625,0.5440673828125,-99.42626953125,77.1484375,-60.546875
21853.212053083,-0.105224609375,0.5533447265625,0.6700439453125,-99.42626953125,77.1484375,-60.546875
21853.21224925,-0.105224609375,0.5533447265625,0.6700439453125,-99.42626953125,74.27978515625,-60.546875
21853.212368208,-0.105224609375,0.5533447265625,0.6700439453125,-99.42626953125,74.27978515625,-75.86669921875
21853.255514458,-0.0887451171875,0.5533447265625,0.6700439453125,-99.42626953125,74.27978515625,-75.86669921875
21853.255681541,-0.0887451171875,0.6868896484375,0.6700439453125,-99.42626953125,74.27978515625,-75.86669921875
21853.260006291,-0.0887451171875,0.6868896484375,0.746337890625,-99.42626953125,74.27978515625,-75.86669921875
21853.260087375,-0.0887451171875,0.6868896484375,0.746337890625,-99.42626953125,74.27978515625,-92.83447265625
21853.285534125,-0.0289306640625,0.6868896484375,0.746337890625,-99.42626953125,74.27978515625,-92.83447265625
21853.291821166,-0.0289306640625,0.8948974609375,0.746337890625,-99.42626953125,74.27978515625,-92.83447265625
21853.291939375,-0.0289306640625,0.8948974609375,0.781494140625,-99.42626953125,74.27978515625,-92.83447265625
21853.300408708,-0.0289306640625,0.8948974609375,0.781494140625,-99.42626953125,62.98828125,-92.83447265625
21853.315713958,-0.0289306640625,0.8948974609375,0.781494140625,-99.42626953125,62.98828125,-101.07421875
21853.316029166,0.197021484375,0.8948974609375,0.781494140625,-99.42626953125,62.98828125,-101.07421875
21853.316141916,0.197021484375,1.1195068359375,0.781494140625,-99.42626953125,62.98828125,-101.07421875
21853.3165,0.197021484375,1.1195068359375,0.6578369140625,-99.42626953125,62.98828125,-101.07421875
21853.422076583,0.197021484375,1.1195068359375,0.6578369140625,-99.42626953125,75.0732421875,-101.07421875
21853.422682458,0.197021484375,1.1195068359375,0.6578369140625,-99.42626953125,75.0732421875,-98.0224609375
21853.422887625,0.3330078125,1.1195068359375,0.6578369140625,-99.42626953125,75.0732421875,-98.0224609375
21853.424425333,0.3330078125,0.97705078125,0.6578369140625,-99.42626953125,75.0732421875,-98.0224609375
21853.442296375,0.3330078125,0.97705078125,0.6578369140625,-99.42626953125,92.041015625,-98.0224609375
21853.442394291,0.3330078125,0.97705078125,0.6578369140625,-99.42626953125,92.041015625,-94.970703125
21853.475250708,0.4400634765625,0.97705078125,0.6578369140625,-99.42626953125,92.041015625,-94.970703125
21853.47532575,0.4400634765625,0.880615234375,0.6578369140625,-99.42626953125,92.041015625,-94.970703125
21853.475388541,0.4400634765625,0.880615234375,0.8026123046875,-99.42626953125,92.041015625,-94.970703125
21853.475452125,0.4400634765625,0.880615234375,0.8026123046875,-27.03857421875,92.041015625,-94.970703125
21853.481853208,0.52783203125,0.880615234375,0.8026123046875,-27.03857421875,92.041015625,-94.970703125
21853.482019,0.52783203125,0.99658203125,0.8026123046875,-27.03857421875,92.041015625,-94.970703125
21853.482113708,0.52783203125,0.99658203125,0.71923828125,-27.03857421875,92.041015625,-94.970703125
21853.511368583,0.52783203125,0.99658203125,0.71923828125,-27.03857421875,76.7822265625,-94.970703125
21853.511529375,0.52783203125,0.99658203125,0.71923828125,-27.03857421875,76.7822265625,-41.6259765625
21853.524621166,0.6236572265625,0.99658203125,0.71923828125,-27.03857421875,76.7822265625,-41.6259765625
21853.524692041,0.6236572265625,0.9080810546875,0.71923828125,-27.03857421875,76.7822265625,-41.6259765625
21853.527043125,0.6236572265625,0.9080810546875,0.71923828125,-27.03857421875,75.13427734375,-41.6259765625
21853.527181416,0.6236572265625,0.9080810546875,0.71923828125,-27.03857421875,75.13427734375,-29.96826171875
21853.555744583,0.641357421875,0.9080810546875,0.71923828125,-27.03857421875,75.13427734375,-29.96826171875
21853.555898666,0.641357421875,0.80419921875,0.71923828125,-27.03857421875,75.13427734375,-29.96826171875
21853.557122583,0.641357421875,0.80419921875,1.0443115234375,-27.03857421875,75.13427734375,-29.96826171875
21853.55727425,0.641357421875,0.80419921875,1.0443115234375,19.04296875,75.13427734375,-29.96826171875
21853.574697,0.5050048828125,0.80419921875,1.0443115234375,19.04296875,75.13427734375,-29.96826171875
21853.574775916,0.5050048828125,0.517578125,1.0443115234375,19.04296875,75.13427734375,-29.96826171875
21853.574838166,0.5050048828125,0.517578125,1.0345458984375,19.04296875,75.13427734375,-29.96826171875
21853.585744583,0.5050048828125,0.517578125,1.0345458984375,19.04296875,34.97314453125,-29.96826171875
21853.591353583,0.5050048828125,0.517578125,1.0345458984375,19.04296875,34.97314453125,-22.94921875
21853.615416,0.4771728515625,0.517578125,1.0345458984375,19.04296875,34.97314453125,-22.94921875
21853.615548458,0.4771728515625,0.927490234375,1.0345458984375,19.04296875,34.97314453125,-22.94921875
21853.616220875,0.4771728515625,0.927490234375,1.069091796875,19.04296875,34.97314453125,-22.94921875
21853.616351791,0.4771728515625,0.927490234375,1.069091796875,19.04296875,8.36181640625,-22.94921875
NEW_REP,,,,,,
21853.63056875,0.4195556640625,0.927490234375,1.069091796875,19.04296875,8.36181640625,-22.94921875
21853.630757083,0.4195556640625,0.9268798828125,1.069091796875,19.04296875,8.36181640625,-22.94921875
21853.630849541,0.4195556640625,0.9268798828125,1.1314697265625,19.04296875,8.36181640625,-22.94921875
21853.690620125,0.4195556640625,0.9268798828125,1.1314697265625,19.04296875,-2.44140625,-22.94921875
21853.690816458,0.4195556640625,0.9268798828125,1.1314697265625,19.04296875,-2.44140625,-1.77001953125
21853.72056225,0.3875732421875,0.9268798828125,1.1314697265625,19.04296875,-2.44140625,-1.77001953125
21853.720755916,0.3875732421875,0.86279296875,1.1314697265625,19.04296875,-2.44140625,-1.77001953125
21853.721249916,0.3875732421875,0.86279296875,1.1314697265625,19.04296875,-20.20263671875,-1.77001953125
21853.72141375,0.3875732421875,0.86279296875,1.1314697265625,19.04296875,-20.20263671875,7.6904296875
21853.741984083,0.3875732421875,1.12255859375,1.1314697265625,19.04296875,-20.20263671875,7.6904296875
21853.742060625,0.3875732421875,1.12255859375,1.143310546875,19.04296875,-20.20263671875,7.6904296875
21853.74213,0.3875732421875,1.12255859375,1.143310546875,78.857421875,-20.20263671875,7.6904296875
21853.750488625,0.3875732421875,1.12255859375,1.143310546875,78.857421875,-20.20263671875,36.43798828125
21853.780647666,0.5450439453125,1.12255859375,1.143310546875,78.857421875,-20.20263671875,36.43798828125
21853.78516475,0.5450439453125,1.0728759765625,1.143310546875,78.857421875,-20.20263671875,36.43798828125
21853.78544525,0.5450439453125,1.0728759765625,1.070556640625,78.857421875,-20.20263671875,36.43798828125
21853.785534791,0.5450439453125,1.0728759765625,1.070556640625,89.17236328125,-20.20263671875,36.43798828125
21853.810337875,0.506103515625,1.0728759765625,1.070556640625,89.17236328125,-20.20263671875,36.43798828125
21853.810509208,0.506103515625,1.04931640625,1.070556640625,89.17236328125,-20.20263671875,36.43798828125
21853.811236625,0.506103515625,1.04931640625,1.0008544921875,89.17236328125,-20.20263671875,36.43798828125
21853.811379208,0.506103515625,1.04931640625,1.0008544921875,89.17236328125,-96.923828125,36.43798828125
21853.826935,0.493408203125,1.04931640625,1.0008544921875,89.17236328125,-96.923828125,36.43798828125
21853.827116708,0.493408203125,1.0224609375,1.0008544921875,89.17236328125,-96.923828125,36.43798828125
21853.827220583,0.493408203125,1.0224609375,0.95068359375,89.17236328125,-96.923828125,36.43798828125
21853.84192825,0.493408203125,1.0224609375,0.95068359375,89.17236328125,-106.5673828125,36.43798828125
21853.842104125,0.493408203125,1.0224609375,0.95068359375,89.17236328125,-106.5673828125,80.2001953125
21853.8710525,0.451416015625,1.0224609375,0.95068359375,89.17236328125,-106.5673828125,80.2001953125
21853.8712915,0.451416015625,0.94873046875,0.95068359375,89.17236328125,-106.5673828125,80.2001953125
21853.871379375,0.451416015625,0.94873046875,1.003173828125,89.17236328125,-106.5673828125,80.2001953125
21853.886428125,0.451416015625,0.94873046875,1.003173828125,89.17236328125,-111.26708984375,80.2001953125
21853.886600416,0.3843994140625,0.94873046875,1.003173828125,89.17236328125,-111.26708984375,80.2001953125
21853.888082208,0.3843994140625,0.8914794921875,1.003173828125,89.17236328125,-111.26708984375,80.2001953125
21853.888261375,0.3843994140625,0.8914794921875,0.9697265625,89.17236328125,-111.26708984375,80.2001953125
21853.908636208,0.3843994140625,0.8914794921875,0.9697265625,89.17236328125,-107.91015625,80.2001953125
21853.908716125,0.3843994140625,0.8914794921875,0.9697265625,89.17236328125,-107.91015625,89.29443359375
21853.915497583,0.3277587890625,0.8914794921875,0.9697265625,89.17236328125,-107.91015625,89.29443359375
21853.915633916,0.3277587890625,0.853271484375,0.9697265625,89.17236328125,-107.91015625,89.29443359375
21853.918004291,0.3277587890625,0.853271484375,1.091796875,89.17236328125,-107.91015625,89.29443359375
21853.961139958,0.3277587890625,0.853271484375,1.091796875,89.17236328125,-104.8583984375,89.29443359375
21853.961323541,0.3277587890625,0.853271484375,1.091796875,89.17236328125,-104.8583984375,86.3037109375
21854.006254666,0.3013916015625,0.853271484375,1.091796875,89.17236328125,-104.8583984375,86.3037109375
21854.006398125,0.3013916015625,0.853271484375,1.2574462890625,89.17236328125,-104.8583984375,86.3037109375
21854.006474708,0.3013916015625,0.853271484375,1.2574462890625,182.7392578125,-104.8583984375,86.3037109375
21854.035575416,0.3013916015625,0.853271484375,1.2574462890625,182.7392578125,-100.52490234375,86.3037109375
21854.041993083,0.357666015625,0.853271484375,1.2574462890625,182.7392578125,-100.52490234375,86.3037109375
21854.0422045,0.357666015625,0.4195556640625,1.2574462890625,182.7392578125,-100.52490234375,86.3037109375
21854.042267458,0.357666015625,0.4195556640625,0.90478515625,182.7392578125,-100.52490234375,86.3037109375
21854.06460375,0.357666015625,0.4195556640625,0.90478515625,182.7392578125,-106.50634765625,86.3037109375
21854.065693333,0.357666015625,0.4195556640625,0.90478515625,182.7392578125,-106.50634765625,62.19482421875
21854.080586958,0.27197265625,0.4195556640625,0.90478515625,182.7392578125,-106.50634765625,62.19482421875
21854.080798291,0.27197265625,0.28564453125,0.90478515625,182.7392578125,-106.50634765625,62.19482421875
21854.080910541,0.27197265625,0.28564453125,0.5010986328125,182.7392578125,-106.50634765625,62.19482421875
21854.111047916,0.187744140625,0.28564453125,0.5010986328125,182.7392578125,-106.50634765625,62.19482421875
21854.111263875,0.187744140625,0.111083984375,0.5010986328125,182.7392578125,-106.50634765625,62.19482421875
21854.11137725,0.187744140625,0.111083984375,0.259033203125,182.7392578125,-106.50634765625,62.19482421875
21854.1121025,0.187744140625,0.111083984375,0.259033203125,91.36962890625,-106.50634765625,62.19482421875
21854.127031208,0.1011962890625,0.111083984375,0.259033203125,91.36962890625,-106.50634765625,62.19482421875
21854.127204583,0.1011962890625,0.064453125,0.259033203125,91.36962890625,-106.50634765625,62.19482421875
21854.127264791,0.1011962890625,0.064453125,0.163330078125,91.36962890625,-106.50634765625,62.19482421875
21854.155868625,0.1011962890625,0.064453125,0.163330078125,91.36962890625,-136.962890625,62.19482421875
21854.1560165,0.1011962890625,0.064453125,0.163330078125,91.36962890625,-136.962890625,15.80810546875
21854.157222,-0.072021484375,0.064453125,0.163330078125,91.36962890625,-136.962890625,15.80810546875
21854.15735575,-0.072021484375,0.1234130859375,0.163330078125,91.36962890625,-136.962890625,15.80810546875
21854.175089625,-0.072021484375,0.1234130859375,0.163330078125,91.36962890625,-123.59619140625,15.80810546875
21854.175164541,-0.072021484375,0.1234130859375,0.163330078125,91.36962890625,-123.59619140625,26.123046875
21854.261243666,-0.2423095703125,0.1234130859375,0.163330078125,91.36962890625,-123.59619140625,26.123046875
21854.261587541,-0.2423095703125,-0.2557373046875,0.163330078125,91.36962890625,-123.59619140625,26.123046875
21854.262768083,-0.2423095703125,-0.2557373046875,-0.18359375,91.36962890625,-123.59619140625,26.123046875
21854.262984083,-0.2423095703125,-0.2557373046875,-0.18359375,56.21337890625,-123.59619140625,26.123046875
21854.306732041,-0.3385009765625,-0.2557373046875,-0.18359375,56.21337890625,-123.59619140625,26.123046875
21854.307104333,-0.3385009765625,-0.43115234375,-0.18359375,56.21337890625,-123.59619140625,26.123046875
21854.321429833,-0.3385009765625,-0.43115234375,-0.21923828125,56.21337890625,-123.59619140625,26.123046875
21854.321678708,-0.3385009765625,-0.43115234375,-0.21923828125,56.21337890625,-70.00732421875,26.123046875
21854.323018458,-0.3385009765625,-0.43115234375,-0.21923828125,56.21337890625,-70.00732421875,20.81298828125
21854.365765125,-0.24609375,-0.43115234375,-0.21923828125,56.21337890625,-70.00732421875,20.81298828125
21854.365889958,-0.24609375,-0.1278076171875,-0.21923828125,56.21337890625,-70.00732421875,20.81298828125
21854.366389541,-0.24609375,-0.1278076171875,0.13037109375,56.21337890625,-70.00732421875,20.81298828125
21854.36659625,-0.24609375,-0.1278076171875,0.13037109375,-82.03125,-70.00732421875,20.81298828125
21854.39245375,-0.1925048828125,-0.1278076171875,0.13037109375,-82.03125,-70.00732421875,20.81298828125
21854.392534833,-0.1925048828125,0.0831298828125,0.13037109375,-82.03125,-70.00732421875,20.81298828125
21854.39261,-0.1925048828125,0.0831298828125,0.307373046875,-82.03125,-70.00732421875,20.81298828125
21854.397455083,-0.1925048828125,0.0831298828125,0.307373046875,-82.03125,71.8994140625,20.81298828125
21854.397632416,-0.1925048828125,0.0831298828125,0.307373046875,-82.03125,71.8994140625,-41.3818359375
21854.426929791,-0.216796875,0.0831298828125,0.307373046875,-82.03125,71.8994140625,-41.3818359375
21854.427248958,-0.216796875,0.1512451171875,0.307373046875,-82.03125,71.8994140625,-41.3818359375
21854.427380208,-0.216796875,0.1512451171875,0.546630859375,-82.03125,71.8994140625,-41.3818359375
21854.427465875,-0.216796875,0.1512451171875,0.546630859375,-87.46337890625,71.8994140625,-41.3818359375
21854.442194,-0.1259765625,0.1512451171875,0.546630859375,-87.46337890625,71.8994140625,-41.3818359375
21854.442475166,-0.1259765625,0.2510986328125,0.546630859375,-87.46337890625,71.8994140625,-41.3818359375
21854.44258825,-0.1259765625,0.2510986328125,0.6297607421875,-87.46337890625,71.8994140625,-41.3818359375
21854.457028083,-0.1259765625,0.2510986328125,0.6297607421875,-87.46337890625,98.2666015625,-41.3818359375
21854.457229291,-0.1259765625,0.2510986328125,0.6297607421875,-87.46337890625,98.2666015625,-59.50927734375
21854.475401916,-0.103515625,0.2510986328125,0.6297607421875,-87.46337890625,98.2666015625,-59.50927734375
21854.475480333,-0.103515625,0.357177734375,0.6297607421875,-87.46337890625,98.2666015625,-59.50927734375
21854.475551291,-0.103515625,0.357177734375,0.7586669921875,-87.46337890625,98.2666015625,-59.50927734375
21854.485611583,-0.103515625,0.357177734375,0.7586669921875,-87.46337890625,95.27587890625,-59.50927734375
21854.503073458,-0.103515625,0.357177734375,0.7586669921875,-87.46337890625,95.27587890625,-66.7724609375
21854.508546375,-0.072998046875,0.357177734375,0.7586669921875,-87.46337890625,95.27587890625,-66.7724609375
21854.517409958,-0.072998046875,0.500732421875,0.7586669921875,-87.46337890625,95.27587890625,-66.7724609375
21854.517646166,-0.072998046875,0.500732421875,0.8978271484375,-87.46337890625,95.27587890625,-66.7724609375
21854.517763791,-0.072998046875,0.500732421875,0.8978271484375,-87.46337890625,94.42138671875,-66.7724609375
21854.517909125,-0.072998046875,0.500732421875,0.8978271484375,-87.46337890625,94.42138671875,-73.05908203125
21854.530508583,-0.0809326171875,0.500732421875,0.8978271484375,-87.46337890625,94.42138671875,-73.05908203125
21854.530698291,-0.0809326171875,0.56103515625,0.8978271484375,-87.46337890625,94.42138671875,-73.05908203125
21854.530803666,-0.0809326171875,0.56103515625,0.969482421875,-87.46337890625,94.42138671875,-73.05908203125
21854.592695916,-0.0809326171875,0.56103515625,0.969482421875,-87.46337890625,90.9423828125,-73.05908203125
21854.622353916,-0.0809326171875,0.56103515625,0.969482421875,-87.46337890625,90.9423828125,-74.52392578125
21854.622690625,0.0748291015625,0.56103515625,0.969482421875,-87.46337890625,90.9423828125,-74.52392578125
21854.622809,0.0748291015625,0.625732421875,0.969482421875,-87.46337890625,90.9423828125,-74.52392578125
21854.6291165,0.0748291015625,0.625732421875,0.969482421875,-87.46337890625,79.77294921875,-74.52392578125
21854.666363541,0.0089111328125,0.625732421875,0.969482421875,-87.46337890625,79.77294921875,-74.52392578125
21854.666633625,0.0089111328125,0.95458984375,0.969482421875,-87.46337890625,79.77294921875,-74.52392578125
21854.666716875,0.0089111328125,0.95458984375,1.0335693359375,-87.46337890625,79.77294921875,-74.52392578125
21854.66692325,0.0089111328125,0.95458984375,1.0335693359375,-87.46337890625,59.02099609375,-74.52392578125
21854.695009208,0.2698974609375,0.95458984375,1.0335693359375,-87.46337890625,59.02099609375,-74.52392578125
21854.712486125,0.2698974609375,0.65576171875,1.0335693359375,-87.46337890625,59.02099609375,-74.52392578125
21854.717007833,0.2698974609375,0.65576171875,0.928466796875,-87.46337890625,59.02099609375,-74.52392578125
21854.71714875,0.2698974609375,0.65576171875,0.928466796875,-34.11865234375,59.02099609375,-74.52392578125
21854.717236125,0.4158935546875,0.65576171875,0.928466796875,-34.11865234375,59.02099609375,-74.52392578125
21854.72611575,0.4158935546875,0.65576171875,0.8857421875,-34.11865234375,59.02099609375,-74.52392578125
21854.726318791,0.4158935546875,0.65576171875,0.8857421875,-86.60888671875,59.02099609375,-74.52392578125
21854.74221575,0.4158935546875,0.65576171875,0.8857421875,-86.60888671875,73.05908203125,-74.52392578125
21854.742423958,0.5771484375,0.65576171875,0.8857421875,-86.60888671875,73.05908203125,-74.52392578125
21854.742532375,0.5771484375,0.90478515625,0.8857421875,-86.60888671875,73.05908203125,-74.52392578125
21854.742673375,0.5771484375,0.90478515625,1.00146484375,-86.60888671875,73.05908203125,-74.52392578125
21854.759025791,0.5771484375,0.90478515625,1.00146484375,-86.60888671875,54.6875,-74.52392578125
21854.759110333,0.5771484375,0.90478515625,1.00146484375,-86.60888671875,54.6875,-103.1494140625
21854.77527925,0.3905029296875,0.90478515625,1.00146484375,-86.60888671875,54.6875,-103.1494140625
21854.775354458,0.3905029296875,0.888427734375,1.00146484375,-86.60888671875,54.6875,-103.1494140625
21854.775431833,0.3905029296875,0.888427734375,0.93212890625,-86.60888671875,54.6875,-103.1494140625
21854.785693625,0.3905029296875,0.888427734375,0.93212890625,-86.60888671875,51.08642578125,-103.1494140625
21854.791793291,0.3905029296875,0.888427734375,0.93212890625,-86.60888671875,51.08642578125,-98.7548828125
21854.800604208,0.0931396484375,0.888427734375,0.93212890625,-86.60888671875,51.08642578125,-98.7548828125
21854.800848291,0.0931396484375,0.7091064453125,0.93212890625,-86.60888671875,51.08642578125,-98.7548828125
21854.800961166,0.0931396484375,0.7091064453125,0.909912109375,-86.60888671875,51.08642578125,-98.7548828125
21854.817171208,0.0931396484375,0.7091064453125,0.909912109375,-86.60888671875,79.9560546875,-98.7548828125
21854.817317541,0.0931396484375,0.7091064453125,0.909912109375,-86.60888671875,79.9560546875,-75.50048828125
21854.83111225,0.1868896484375,0.7091064453125,0.909912109375,-86.60888671875,79.9560546875,-75.50048828125
21854.831272,0.1868896484375,0.77734375,0.909912109375,-86.60888671875,79.9560546875,-75.50048828125
21854.862363375,0.1868896484375,0.77734375,0.9993896484375,-86.60888671875,79.9560546875,-75.50048828125
21854.862612541,0.1868896484375,0.77734375,0.9993896484375,-86.60888671875,100.40283203125,-75.50048828125
21854.862744833,0.1868896484375,0.77734375,0.9993896484375,-86.60888671875,100.40283203125,-58.04443359375
21854.87540775,0.2769775390625,0.77734375,0.9993896484375,-86.60888671875,100.40283203125,-58.04443359375
21854.892221958,0.2769775390625,0.77734375,1.04296875,-86.60888671875,100.40283203125,-58.04443359375
21854.908531666,0.2769775390625,0.77734375,1.04296875,-1.3427734375,100.40283203125,-58.04443359375
21854.90861175,0.2769775390625,0.77734375,1.04296875,-1.3427734375,112.3046875,-58.04443359375
21854.908682291,0.4398193359375,0.77734375,1.04296875,-1.3427734375,112.3046875,-58.04443359375
21854.908750083,0.4398193359375,0.873779296875,1.04296875,-1.3427734375,112.3046875,-58.04443359375
21854.924939333,0.4398193359375,0.873779296875,1.04296875,-1.3427734375,101.50146484375,-58.04443359375
21854.925020375,0.4398193359375,0.873779296875,1.04296875,-1.3427734375,101.50146484375,-19.59228515625
21854.950435458,0.4864501953125,0.873779296875,1.04296875,-1.3427734375,101.50146484375,-19.59228515625
21854.957994666,0.4864501953125,0.65185546875,1.04296875,-1.3427734375,101.50146484375,-19.59228515625
21854.958059916,0.4864501953125,0.65185546875,0.8072509765625,-1.3427734375,101.50146484375,-19.59228515625
21854.958121791,0.4864501953125,0.65185546875,0.8072509765625,-48.9501953125,101.50146484375,-19.59228515625
21854.96623275,0.512451171875,0.65185546875,0.8072509765625,-48.9501953125,101.50146484375,-19.59228515625
21854.966433958,0.512451171875,1.2366943359375,0.8072509765625,-48.9501953125,101.50146484375,-19.59228515625
21854.9665025,0.512451171875,1.2366943359375,1.0240478515625,-48.9501953125,101.50146484375,-19.59228515625
21854.980514333,0.512451171875,1.2366943359375,1.0240478515625,-48.9501953125,11.90185546875,-19.59228515625
21854.980672958,0.512451171875,1.2366943359375,1.0240478515625,-48.9501953125,11.90185546875,-2.86865234375
21854.995908,0.42333984375,1.2366943359375,1.0240478515625,-48.9501953125,11.90185546875,-2.86865234375
21854.996113291,0.42333984375,0.6566162109375,1.0240478515625,-48.9501953125,11.90185546875,-2.86865234375
21854.996192833,0.42333984375,0.6566162109375,0.8463134765625,-48.9501953125,11.90185546875,-2.86865234375
21855.01221575,0.42333984375,0.6566162109375,0.8463134765625,-48.9501953125,9.21630859375,-2.86865234375
21855.012371666,0.42333984375,0.6566162109375,0.8463134765625,-48.9501953125,9.21630859375,-3.90625
21855.025518375,0.517822265625,0.6566162109375,0.8463134765625,-48.9501953125,9.21630859375,-3.90625
21855.025697333,0.517822265625,0.738037109375,0.8463134765625,-48.9501953125,9.21630859375,-3.90625
21855.025788333,0.517822265625,0.738037109375,0.880615234375,-48.9501953125,9.21630859375,-3.90625
21855.041233958,0.517822265625,0.738037109375,0.880615234375,-48.9501953125,-15.56396484375,-3.90625
NEW_REP,,,,,,
21855.07498925,0.517822265625,0.738037109375,0.880615234375,-48.9501953125,-15.56396484375,3.0517578125
21855.075064625,0.4761962890625,0.738037109375,0.880615234375,-48.9501953125,-15.56396484375,3.0517578125
21855.07512925,0.4761962890625,0.7457275390625,0.880615234375,-48.9501953125,-15.56396484375,3.0517578125
21855.085430083,0.4761962890625,0.7457275390625,0.880615234375,-48.9501953125,-18.37158203125,3.0517578125
21855.114557208,0.4415283203125,0.7457275390625,0.880615234375,-48.9501953125,-18.37158203125,3.0517578125
21855.116978458,0.4415283203125,0.678466796875,0.880615234375,-48.9501953125,-18.37158203125,3.0517578125
21855.117162666,0.4415283203125,0.678466796875,0.9056396484375,-48.9501953125,-18.37158203125,3.0517578125
21855.132013791,0.462158203125,0.678466796875,0.9056396484375,-48.9501953125,-18.37158203125,3.0517578125
21855.132262375,0.462158203125,0.7286376953125,0.9056396484375,-48.9501953125,-18.37158203125,3.0517578125
21855.132390833,0.462158203125,0.7286376953125,0.9622802734375,-48.9501953125,-18.37158203125,3.0517578125
21855.192082375,0.462158203125,0.7286376953125,0.9622802734375,-48.9501953125,-35.70556640625,3.0517578125
21855.192524916,0.462158203125,0.7286376953125,0.9622802734375,-48.9501953125,-35.70556640625,17.4560546875
21855.192685041,0.443603515625,0.7286376953125,0.9622802734375,-48.9501953125,-35.70556640625,17.4560546875
21855.225551791,0.443603515625,0.7286376953125,1.039794921875,-48.9501953125,-35.70556640625,17.4560546875
21855.225633458,0.443603515625,0.7286376953125,1.039794921875,76.2939453125,-35.70556640625,17.4560546875
21855.2257045,0.443603515625,0.7286376953125,1.039794921875,76.2939453125,-50.10986328125,17.4560546875
21855.249555,0.4932861328125,0.7286376953125,1.039794921875,76.2939453125,-50.10986328125,17.4560546875
21855.2517305,0.4932861328125,0.7593994140625,1.039794921875,76.2939453125,-50.10986328125,17.4560546875
21855.266658958,0.4932861328125,0.7593994140625,1.032958984375,76.2939453125,-50.10986328125,17.4560546875
21855.266937416,0.4932861328125,0.7593994140625,1.032958984375,76.2939453125,-77.81982421875,17.4560546875
21855.2670305,0.4830322265625,0.7593994140625,1.032958984375,76.2939453125,-77.81982421875,17.4560546875
21855.267099041,0.4830322265625,0.8345947265625,1.032958984375,76.2939453125,-77.81982421875,17.4560546875
21855.280878291,0.4830322265625,0.8345947265625,1.032958984375,76.2939453125,-91.61376953125,17.4560546875
21855.28104525,0.4830322265625,0.8345947265625,1.032958984375,76.2939453125,-91.61376953125,50.048828125
21855.325760083,0.1533203125,0.8345947265625,1.032958984375,76.2939453125,-91.61376953125,50.048828125
21855.342098958,0.1533203125,0.8006591796875,1.032958984375,76.2939453125,-91.61376953125,50.048828125
21855.342367375,0.1533203125,0.8006591796875,1.4462890625,76.2939453125,-91.61376953125,50.048828125
21855.342497958,0.1533203125,0.8006591796875,1.4462890625,76.2939453125,-46.875,50.048828125
21855.35908325,0.5811767578125,0.8006591796875,1.4462890625,76.2939453125,-46.875,50.048828125
21855.359174166,0.5811767578125,0.4234619140625,1.4462890625,76.2939453125,-46.875,50.048828125
21855.385952416,0.5811767578125,0.4234619140625,1.0809326171875,76.2939453125,-46.875,50.048828125
21855.392491916,0.537841796875,0.4234619140625,1.0809326171875,76.2939453125,-46.875,50.048828125
21855.392636916,0.537841796875,0.688232421875,1.0809326171875,76.2939453125,-46.875,50.048828125
21855.415609375,0.537841796875,0.688232421875,1.2459716796875,76.2939453125,-46.875,50.048828125
21855.415806916,0.537841796875,0.688232421875,1.2459716796875,76.2939453125,-45.8984375,50.048828125
21855.416448833,0.537841796875,0.688232421875,1.2459716796875,76.2939453125,-45.8984375,45.59326171875
21855.416650333,0.5223388671875,0.688232421875,1.2459716796875,76.2939453125,-45.8984375,45.59326171875
21855.432256041,0.5223388671875,0.688232421875,0.9637451171875,76.2939453125,-45.8984375,45.59326171875
21855.432506625,0.5223388671875,0.688232421875,0.9637451171875,178.466796875,-45.8984375,45.59326171875
21855.432636958,0.5223388671875,0.688232421875,0.9637451171875,178.466796875,-66.34521484375,45.59326171875
21855.462194083,0.5458984375,0.688232421875,0.9637451171875,178.466796875,-66.34521484375,45.59326171875
21855.462432,0.5458984375,0.2490234375,0.9637451171875,178.466796875,-66.34521484375,45.59326171875
21855.462560291,0.5458984375,0.2490234375,0.8482666015625,178.466796875,-66.34521484375,45.59326171875
21855.491270791,0.5458984375,0.2490234375,0.8482666015625,178.466796875,-90.02685546875,45.59326171875
21855.508684333,0.5458984375,0.2490234375,0.8482666015625,178.466796875,-90.02685546875,7.38525390625
21855.5087665,0.366943359375,0.2490234375,0.8482666015625,178.466796875,-90.02685546875,7.38525390625
21855.536824166,0.366943359375,0.2490234375,0.685302734375,178.466796875,-90.02685546875,7.38525390625
21855.542077125,0.366943359375,0.2490234375,0.685302734375,83.67919921875,-90.02685546875,7.38525390625
21855.542283125,0.366943359375,0.2490234375,0.685302734375,83.67919921875,-135.07080078125,7.38525390625
21855.542364458,0.2584228515625,0.2490234375,0.685302734375,83.67919921875,-135.07080078125,7.38525390625
21855.5647115,0.2584228515625,0.2490234375,0.46923828125,83.67919921875,-135.07080078125,7.38525390625
21855.582259708,0.2584228515625,0.2490234375,0.46923828125,71.8994140625,-135.07080078125,7.38525390625
21855.58260325,0.2584228515625,0.2490234375,0.46923828125,71.8994140625,-148.49853515625,7.38525390625
21855.582711375,0.0928955078125,0.2490234375,0.46923828125,71.8994140625,-148.49853515625,7.38525390625
21855.595650166,0.0928955078125,0.2490234375,0.290283203125,71.8994140625,-148.49853515625,7.38525390625
21855.595850458,0.0928955078125,0.2490234375,0.290283203125,-13.36669921875,-148.49853515625,7.38525390625
21855.595956458,0.0928955078125,0.2490234375,0.290283203125,-13.36669921875,-152.77099609375,7.38525390625
21855.624721416,-0.11376953125,0.2490234375,0.290283203125,-13.36669921875,-152.77099609375,7.38525390625
21855.640908416,-0.11376953125,-0.0050048828125,0.290283203125,-13.36669921875,-152.77099609375,7.38525390625
21855.641185125,-0.11376953125,-0.0050048828125,0.096435546875,-13.36669921875,-152.77099609375,7.38525390625
21855.641297916,-0.11376953125,-0.0050048828125,0.096435546875,-13.36669921875,-129.33349609375,7.38525390625
21855.641853166,-0.2008056640625,-0.0050048828125,0.096435546875,-13.36669921875,-129.33349609375,7.38525390625
21855.658808208,-0.2008056640625,-0.0050048828125,-0.036865234375,-13.36669921875,-129.33349609375,7.38525390625
21855.658896541,-0.2008056640625,-0.0050048828125,-0.036865234375,19.83642578125,-129.33349609375,7.38525390625
21855.658969375,-0.2008056640625,-0.0050048828125,-0.036865234375,19.83642578125,-102.96630859375,7.38525390625
21855.731750166,-0.2650146484375,-0.0050048828125,-0.036865234375,19.83642578125,-102.96630859375,7.38525390625
21855.737901458,-0.2650146484375,-0.1405029296875,-0.036865234375,19.83642578125,-102.96630859375,7.38525390625
21855.738169041,-0.2650146484375,-0.1405029296875,0.0164794921875,19.83642578125,-102.96630859375,7.38525390625
21855.761218291,-0.2650146484375,-0.1405029296875,0.0164794921875,-3.96728515625,-102.96630859375,7.38525390625
21855.76145225,-0.274658203125,-0.1405029296875,0.0164794921875,-3.96728515625,-102.96630859375,7.38525390625
21855.762311666,-0.274658203125,-0.1434326171875,0.0164794921875,-3.96728515625,-102.96630859375,7.38525390625
21855.762536541,-0.274658203125,-0.1434326171875,0.0682373046875,-3.96728515625,-102.96630859375,7.38525390625
21855.806088416,-0.1378173828125,-0.1434326171875,0.0682373046875,-3.96728515625,-102.96630859375,7.38525390625
21855.806339666,-0.1378173828125,-0.013671875,0.0682373046875,-3.96728515625,-102.96630859375,7.38525390625
21855.820674041,-0.1378173828125,-0.013671875,0.306396484375,-3.96728515625,-102.96630859375,7.38525390625
21855.820915041,-0.1378173828125,-0.013671875,0.306396484375,-3.96728515625,39.97802734375,7.38525390625
21855.842206583,-0.2166748046875,-0.013671875,0.306396484375,-3.96728515625,39.97802734375,7.38525390625
21855.842287416,-0.2166748046875,0.0845947265625,0.306396484375,-3.96728515625,39.97802734375,7.38525390625
21855.842358708,-0.2166748046875,0.0845947265625,0.53076171875,-3.96728515625,39.97802734375,7.38525390625
21855.850526458,-0.2166748046875,0.0845947265625,0.53076171875,-3.96728515625,39.97802734375,-10.25390625
21855.865731,-0.04541015625,0.0845947265625,0.53076171875,-3.96728515625,39.97802734375,-10.25390625
21855.86591825,-0.04541015625,0.0626220703125,0.53076171875,-3.96728515625,39.97802734375,-10.25390625
21855.866021583,-0.04541015625,0.0626220703125,0.6126708984375,-3.96728515625,39.97802734375,-10.25390625
21855.911277375,-0.04541015625,0.0626220703125,0.6126708984375,-3.96728515625,70.73974609375,-10.25390625
21855.911403375,-0.04541015625,0.0626220703125,0.6126708984375,-3.96728515625,70.73974609375,-24.5361328125
21855.911980791,-0.1846923828125,0.0626220703125,0.6126708984375,-3.96728515625,70.73974609375,-24.5361328125
21855.912197958,-0.1846923828125,0.4189453125,0.6126708984375,-3.96728515625,70.73974609375,-24.5361328125
21855.939439583,-0.1846923828125,0.4189453125,0.6126708984375,-3.96728515625,77.33154296875,-24.5361328125
21855.986234958,-0.1846923828125,0.4189453125,0.6126708984375,-3.96728515625,77.33154296875,-33.5693359375
21856.00861025,-0.073974609375,0.4189453125,0.6126708984375,-3.96728515625,77.33154296875,-33.5693359375
21856.00898825,-0.073974609375,0.3814697265625,0.6126708984375,-3.96728515625,77.33154296875,-33.5693359375
21856.009060416,-0.073974609375,0.3814697265625,0.8883056640625,-3.96728515625,77.33154296875,-33.5693359375
21856.009130458,0.00439453125,0.3814697265625,0.8883056640625,-3.96728515625,77.33154296875,-33.5693359375
21856.009197916,0.00439453125,0.5645751953125,0.8883056640625,-3.96728515625,77.33154296875,-33.5693359375
21856.009264833,0.00439453125,0.5645751953125,1.02197265625,-3.96728515625,77.33154296875,-33.5693359375
21856.030158333,0.00439453125,0.5645751953125,1.02197265625,-3.96728515625,99.609375,-33.5693359375
21856.030320125,0.00439453125,0.5645751953125,1.02197265625,-3.96728515625,99.609375,-40.83251953125
21856.061307583,0.1390380859375,0.5645751953125,1.02197265625,-3.96728515625,99.609375,-40.83251953125
21856.061492458,0.1390380859375,0.453857421875,1.02197265625,-3.96728515625,99.609375,-40.83251953125
21856.062424541,0.1390380859375,0.453857421875,0.95849609375,-3.96728515625,99.609375,-40.83251953125
21856.090819458,0.1390380859375,0.453857421875,0.95849609375,-3.96728515625,99.609375,-46.2646484375
21856.091144291,0.1165771484375,0.453857421875,0.95849609375,-3.96728515625,99.609375,-46.2646484375
21856.09130375,0.1165771484375,0.6962890625,0.95849609375,-3.96728515625,99.609375,-46.2646484375
21856.105716916,0.1165771484375,0.6962890625,0.95849609375,-89.84375,99.609375,-46.2646484375
21856.106038875,0.1165771484375,0.6962890625,0.95849609375,-89.84375,96.3134765625,-46.2646484375
21856.106140791,0.1165771484375,0.6962890625,0.95849609375,-89.84375,96.3134765625,-62.8662109375
21856.136420791,0.2694091796875,0.6962890625,0.95849609375,-89.84375,96.3134765625,-62.8662109375
21856.142397125,0.2694091796875,0.611572265625,0.95849609375,-89.84375,96.3134765625,-62.8662109375
21856.142536541,0.2694091796875,0.611572265625,0.9989013671875,-89.84375,96.3134765625,-62.8662109375
21856.152220208,0.2694091796875,0.611572265625,0.9989013671875,-89.84375,101.62353515625,-62.8662109375
21856.152398208,0.2694091796875,0.611572265625,0.9989013671875,-89.84375,101.62353515625,-58.28857421875
21856.196658875,0.2689208984375,0.611572265625,0.9989013671875,-89.84375,101.62353515625,-58.28857421875
21856.196986291,0.2689208984375,0.879638671875,0.9989013671875,-89.84375,101.62353515625,-58.28857421875
21856.197114166,0.2689208984375,0.879638671875,1.23828125,-89.84375,101.62353515625,-58.28857421875
21856.211294875,0.2689208984375,0.879638671875,1.23828125,-51.08642578125,101.62353515625,-58.28857421875
21856.211704125,0.406005859375,0.879638671875,1.23828125,-51.08642578125,101.62353515625,-58.28857421875
21856.211854708,0.406005859375,0.635498046875,1.23828125,-51.08642578125,101.62353515625,-58.28857421875
21856.211963041,0.406005859375,0.635498046875,1.1678466796875,-51.08642578125,101.62353515625,-58.28857421875
21856.227385,0.406005859375,0.635498046875,1.1678466796875,-51.08642578125,108.0322265625,-58.28857421875
21856.22751925,0.406005859375,0.635498046875,1.1678466796875,-51.08642578125,108.0322265625,-32.470703125
21856.258789958,0.56494140625,0.635498046875,1.1678466796875,-51.08642578125,108.0322265625,-32.470703125
21856.286160625,0.56494140625,0.4437255859375,1.1678466796875,-51.08642578125,108.0322265625,-32.470703125
21856.301474541,0.56494140625,0.4437255859375,0.9630126953125,-51.08642578125,108.0322265625,-32.470703125
21856.301756125,0.56494140625,0.4437255859375,0.9630126953125,-51.08642578125,66.650390625,-32.470703125
21856.301879208,0.56494140625,0.4437255859375,0.9630126953125,-51.08642578125,66.650390625,-35.58349609375
21856.301948625,0.56494140625,0.675048828125,0.9630126953125,-51.08642578125,66.650390625,-35.58349609375
21856.347392666,0.56494140625,0.675048828125,0.9630126953125,-86.7919921875,66.650390625,-35.58349609375
21856.358252416,0.56494140625,0.675048828125,0.9630126953125,-86.7919921875,25.69580078125,-35.58349609375
21856.358424208,0.56494140625,0.675048828125,0.9630126953125,-86.7919921875,25.69580078125,-47.9736328125
21856.37701275,0.56494140625,0.61962890625,0.9630126953125,-86.7919921875,25.69580078125,-47.9736328125
21856.407040333,0.56494140625,0.61962890625,0.78271484375,-86.7919921875,25.69580078125,-47.9736328125
21856.407277,0.56494140625,0.61962890625,0.78271484375,-91.36962890625,25.69580078125,-47.9736328125
21856.407389291,0.56494140625,0.61962890625,0.78271484375,-91.36962890625,25.69580078125,-50.9033203125
21856.4075485,0.376708984375,0.61962890625,0.78271484375,-91.36962890625,25.69580078125,-50.9033203125
21856.42503775,0.376708984375,0.61962890625,0.78271484375,-62.19482421875,25.69580078125,-50.9033203125
21856.425118416,0.376708984375,0.61962890625,0.78271484375,-62.19482421875,14.5263671875,-50.9033203125
21856.450539791,0.376708984375,0.61962890625,0.78271484375,-62.19482421875,14.5263671875,-20.3857421875
21856.450709291,0.3819580078125,0.61962890625,0.78271484375,-62.19482421875,14.5263671875,-20.3857421875
21856.451188041,0.3819580078125,0.6856689453125,0.78271484375,-62.19482421875,14.5263671875,-20.3857421875
21856.458072625,0.3819580078125,0.6856689453125,1.14111328125,-62.19482421875,14.5263671875,-20.3857421875
21856.467216958,0.3819580078125,0.6856689453125,1.14111328125,-62.19482421875,18.37158203125,-20.3857421875
21856.467365,0.3819580078125,0.6856689453125,1.14111328125,-62.19482421875,18.37158203125,5.55419921875
21856.481294,0.433349609375,0.6856689453125,1.14111328125,-62.19482421875,18.37158203125,5.55419921875
21856.481533583,0.433349609375,0.517333984375,1.14111328125,-62.19482421875,18.37158203125,5.55419921875
21856.481639625,0.433349609375,0.517333984375,1.1932373046875,-62.19482421875,18.37158203125,5.55419921875
NEW_REP,,,,,,
21856.510410333,0.433349609375,0.517333984375,1.1932373046875,-62.19482421875,-12.939453125,5.55419921875
21856.510555458,0.433349609375,0.517333984375,1.1932373046875,-62.19482421875,-12.939453125,0.48828125
21856.511266291,0.4908447265625,0.517333984375,1.1932373046875,-62.19482421875,-12.939453125,0.48828125
21856.511410875,0.4908447265625,0.6190185546875,1.1932373046875,-62.19482421875,-12.939453125,0.48828125
21856.525343583,0.4908447265625,0.6190185546875,1.1932373046875,-62.19482421875,-35.15625,0.48828125
21856.541381875,0.4908447265625,0.6190185546875,1.1932373046875,-62.19482421875,-35.15625,-2.8076171875
21856.558615791,0.54248046875,0.6190185546875,1.1932373046875,-62.19482421875,-35.15625,-2.8076171875
21856.558684291,0.54248046875,0.6998291015625,1.1932373046875,-62.19482421875,-35.15625,-2.8076171875
21856.558745,0.54248046875,0.6998291015625,1.3297119140625,-62.19482421875,-35.15625,-2.8076171875
21856.575157166,0.54248046875,0.6998291015625,1.3297119140625,-62.19482421875,-71.2890625,-2.8076171875
21856.575231041,0.54248046875,0.6998291015625,1.3297119140625,-62.19482421875,-71.2890625,-0.244140625
21856.585706875,0.589111328125,0.6998291015625,1.3297119140625,-62.19482421875,-71.2890625,-0.244140625
21856.591879208,0.589111328125,0.6429443359375,1.3297119140625,-62.19482421875,-71.2890625,-0.244140625
21856.59198125,0.589111328125,0.6429443359375,1.2694091796875,-62.19482421875,-71.2890625,-0.244140625
21856.676550083,0.589111328125,0.6429443359375,1.2694091796875,-62.19482421875,-94.05517578125,-0.244140625
21856.693186583,0.589111328125,0.6429443359375,1.2694091796875,-62.19482421875,-94.05517578125,6.2255859375
21856.693284541,0.6151123046875,0.6429443359375,1.2694091796875,-62.19482421875,-94.05517578125,6.2255859375
21856.693369208,0.6151123046875,0.6429443359375,1.274169921875,-62.19482421875,-94.05517578125,6.2255859375
21856.693451791,0.6151123046875,0.6429443359375,1.274169921875,-62.19482421875,-115.478515625,6.2255859375
21856.693534583,0.6151123046875,0.6429443359375,1.274169921875,-62.19482421875,-115.478515625,13.73291015625
21856.720214583,0.49853515625,0.6429443359375,1.274169921875,-62.19482421875,-115.478515625,13.73291015625
21856.725530125,0.49853515625,0.793701171875,1.274169921875,-62.19482421875,-115.478515625,13.73291015625
21856.76633925,0.49853515625,0.793701171875,1.146728515625,-62.19482421875,-115.478515625,13.73291015625
21856.766602958,0.49853515625,0.793701171875,1.146728515625,-62.19482421875,-148.5595703125,13.73291015625
21856.767133333,0.49853515625,0.793701171875,1.146728515625,-62.19482421875,-148.5595703125,36.56005859375
21856.811782541,0.4671630859375,0.793701171875,1.146728515625,-62.19482421875,-148.5595703125,36.56005859375
21856.812028833,0.4671630859375,0.793701171875,1.0810546875,-62.19482421875,-148.5595703125,36.56005859375
21856.8121335,0.4671630859375,0.793701171875,1.0810546875,86.9140625,-148.5595703125,36.56005859375
21856.825425291,0.4671630859375,0.793701171875,1.0810546875,86.9140625,-148.5595703125,44.25048828125
21856.855477083,0.1719970703125,0.793701171875,1.0810546875,86.9140625,-148.5595703125,44.25048828125
21856.857002791,0.1719970703125,0.45751953125,1.0810546875,86.9140625,-148.5595703125,44.25048828125
21856.857266416,0.1719970703125,0.45751953125,0.6646728515625,86.9140625,-148.5595703125,44.25048828125
21856.857398666,0.1719970703125,0.45751953125,0.6646728515625,86.9140625,-162.04833984375,44.25048828125
21856.875760791,0.1446533203125,0.45751953125,0.6646728515625,86.9140625,-162.04833984375,44.25048828125
21856.875847041,0.1446533203125,0.4931640625,0.6646728515625,86.9140625,-162.04833984375,44.25048828125
21856.875921791,0.1446533203125,0.4931640625,0.5411376953125,86.9140625,-162.04833984375,44.25048828125
21856.885798458,0.1446533203125,0.4931640625,0.5411376953125,86.9140625,-148.5595703125,44.25048828125
21856.89236775,0.1446533203125,0.4931640625,0.5411376953125,86.9140625,-148.5595703125,24.4140625
21856.946328333,0.0650634765625,0.4931640625,0.5411376953125,86.9140625,-148.5595703125,24.4140625
21856.946594708,0.0650634765625,0.2852783203125,0.5411376953125,86.9140625,-148.5595703125,24.4140625
21856.947133958,0.0650634765625,0.2852783203125,0.236083984375,86.9140625,-148.5595703125,24.4140625
21856.947462583,0.0650634765625,0.2852783203125,0.236083984375,86.9140625,-133.9111328125,24.4140625
21856.975577958,-0.108154296875,0.2852783203125,0.236083984375,86.9140625,-133.9111328125,24.4140625
21856.975655833,-0.108154296875,0.1806640625,0.236083984375,86.9140625,-133.9111328125,24.4140625
21856.975725041,-0.108154296875,0.1806640625,0.0283203125,86.9140625,-133.9111328125,24.4140625
21856.975916291,-0.108154296875,0.1806640625,0.0283203125,86.9140625,-97.22900390625,24.4140625
21856.9760215,-0.108154296875,0.1806640625,0.0283203125,86.9140625,-97.22900390625,19.4091796875
21856.992368791,-0.23095703125,0.1806640625,0.0283203125,86.9140625,-97.22900390625,19.4091796875
21856.992448625,-0.23095703125,-0.014892578125,0.0283203125,86.9140625,-97.22900390625,19.4091796875
21857.008574541,-0.23095703125,-0.014892578125,-0.0904541015625,86.9140625,-97.22900390625,19.4091796875
21857.008652083,-0.23095703125,-0.014892578125,-0.0904541015625,86.9140625,-55.17578125,19.4091796875
21857.025256541,-0.23095703125,-0.014892578125,-0.0904541015625,86.9140625,-55.17578125,10.31494140625
21857.025335875,-0.239990234375,-0.014892578125,-0.0904541015625,86.9140625,-55.17578125,10.31494140625
21857.025406041,-0.239990234375,-0.02001953125,-0.0904541015625,86.9140625,-55.17578125,10.31494140625
21857.080744375,-0.239990234375,-0.02001953125,-0.09228515625,86.9140625,-55.17578125,10.31494140625
21857.080961041,-0.239990234375,-0.02001953125,-0.09228515625,86.9140625,-17.578125,10.31494140625
21857.081419458,-0.239990234375,-0.02001953125,-0.09228515625,86.9140625,-17.578125,0.06103515625
21857.08159125,-0.2271728515625,-0.02001953125,-0.09228515625,86.9140625,-17.578125,0.06103515625
21857.108856833,-0.2271728515625,-0.02001953125,0.0263671875,86.9140625,-17.578125,0.06103515625
21857.108937875,-0.2271728515625,-0.02001953125,0.0263671875,-31.79931640625,-17.578125,0.06103515625
21857.10900875,-0.2271728515625,-0.02001953125,0.0263671875,-31.79931640625,16.2353515625,0.06103515625
21857.125676666,-0.13330078125,-0.02001953125,0.0263671875,-31.79931640625,16.2353515625,0.06103515625
21857.125740916,-0.13330078125,0.18701171875,0.0263671875,-31.79931640625,16.2353515625,0.06103515625
21857.126256625,-0.13330078125,0.18701171875,0.2562255859375,-31.79931640625,16.2353515625,0.06103515625
21857.126374041,-0.13330078125,0.18701171875,0.2562255859375,-32.5927734375,16.2353515625,0.06103515625
21857.141907541,-0.0380859375,0.18701171875,0.2562255859375,-32.5927734375,16.2353515625,0.06103515625
21857.141985458,-0.0380859375,0.1832275390625,0.2562255859375,-32.5927734375,16.2353515625,0.06103515625
21857.142054583,-0.0380859375,0.1832275390625,0.385009765625,-32.5927734375,16.2353515625,0.06103515625
21857.158545541,-0.0380859375,0.1832275390625,0.385009765625,-32.5927734375,88.134765625,0.06103515625
21857.158625625,-0.0380859375,0.1832275390625,0.385009765625,-32.5927734375,88.134765625,-22.8271484375
21857.247274291,-0.028564453125,0.1832275390625,0.385009765625,-32.5927734375,88.134765625,-22.8271484375
21857.276936125,-0.028564453125,0.251953125,0.385009765625,-32.5927734375,88.134765625,-22.8271484375
21857.277487833,-0.028564453125,0.251953125,0.5443115234375,-32.5927734375,88.134765625,-22.8271484375
21857.277637291,-0.028564453125,0.251953125,0.5443115234375,-62.19482421875,88.134765625,-22.8271484375
21857.277832083,-0.085693359375,0.251953125,0.5443115234375,-62.19482421875,88.134765625,-22.8271484375
21857.293454958,-0.085693359375,0.251953125,0.664794921875,-62.19482421875,88.134765625,-22.8271484375
21857.2935545,-0.085693359375,0.251953125,0.664794921875,-68.42041015625,88.134765625,-22.8271484375
21857.293645375,-0.085693359375,0.251953125,0.664794921875,-68.42041015625,101.37939453125,-22.8271484375
21857.320742166,-0.0213623046875,0.251953125,0.664794921875,-68.42041015625,101.37939453125,-22.8271484375
21857.326028125,-0.0213623046875,0.9234619140625,0.664794921875,-68.42041015625,101.37939453125,-22.8271484375
21857.326149916,-0.0213623046875,0.9234619140625,1.0006103515625,-68.42041015625,101.37939453125,-22.8271484375
21857.32623825,-0.0213623046875,0.9234619140625,1.0006103515625,-112.97607421875,101.37939453125,-22.8271484375
21857.36659575,0.1357421875,0.9234619140625,1.0006103515625,-112.97607421875,101.37939453125,-22.8271484375
21857.366939833,0.1357421875,0.7205810546875,1.0006103515625,-112.97607421875,101.37939453125,-22.8271484375
21857.367085333,0.1357421875,0.7205810546875,0.9312744140625,-112.97607421875,101.37939453125,-22.8271484375
21857.367299333,0.1357421875,0.7205810546875,0.9312744140625,-112.97607421875,135.31494140625,-22.8271484375
21857.396124666,0.1363525390625,0.7205810546875,0.9312744140625,-112.97607421875,135.31494140625,-22.8271484375
21857.396333708,0.1363525390625,0.7958984375,0.9312744140625,-112.97607421875,135.31494140625,-22.8271484375
21857.396949875,0.1363525390625,0.7958984375,1.085205078125,-112.97607421875,135.31494140625,-22.8271484375
21857.397151375,0.1363525390625,0.7958984375,1.085205078125,-105.8349609375,135.31494140625,-22.8271484375
21857.412230166,0.109130859375,0.7958984375,1.085205078125,-105.8349609375,135.31494140625,-22.8271484375
21857.412442166,0.109130859375,0.8673095703125,1.085205078125,-105.8349609375,135.31494140625,-22.8271484375
21857.4125715,0.109130859375,0.8673095703125,1.1243896484375,-105.8349609375,135.31494140625,-22.8271484375
21857.426980125,0.109130859375,0.8673095703125,1.1243896484375,-105.8349609375,130.18798828125,-22.8271484375
21857.442189833,0.109130859375,0.8673095703125,1.1243896484375,-105.8349609375,130.18798828125,-35.888671875
21857.459184625,0.358642578125,0.8673095703125,1.1243896484375,-105.8349609375,130.18798828125,-35.888671875
21857.459264791,0.358642578125,0.5400390625,1.1243896484375,-105.8349609375,130.18798828125,-35.888671875
21857.459335875,0.358642578125,0.5400390625,1.07861328125,-105.8349609375,130.18798828125,-35.888671875
21857.48506,0.358642578125,0.5400390625,1.07861328125,-105.8349609375,126.708984375,-35.888671875
21857.492304083,0.358642578125,0.5400390625,1.07861328125,-105.8349609375,126.708984375,-22.5830078125
21857.492383875,0.26416015625,0.5400390625,1.07861328125,-105.8349609375,126.708984375,-22.5830078125
21857.492455291,0.26416015625,0.5760498046875,1.07861328125,-105.8349609375,126.708984375,-22.5830078125
21857.502267791,0.26416015625,0.5760498046875,1.07861328125,-105.8349609375,104.6142578125,-22.5830078125
21857.508415166,0.26416015625,0.5760498046875,1.07861328125,-105.8349609375,104.6142578125,-34.24072265625
21857.515637833,0.1676025390625,0.5760498046875,1.07861328125,-105.8349609375,104.6142578125,-34.24072265625
21857.5158395,0.1676025390625,0.7186279296875,1.07861328125,-105.8349609375,104.6142578125,-34.24072265625
21857.51596475,0.1676025390625,0.7186279296875,1.0350341796875,-105.8349609375,104.6142578125,-34.24072265625
21857.54610475,0.1676025390625,0.7186279296875,1.0350341796875,-105.8349609375,104.3701171875,-34.24072265625
21857.576338416,0.1676025390625,0.7186279296875,1.0350341796875,-105.8349609375,104.3701171875,-31.43310546875
21857.576520125,0.345947265625,0.7186279296875,1.0350341796875,-105.8349609375,104.3701171875,-31.43310546875
21857.576624958,0.345947265625,0.466796875,1.0350341796875,-105.8349609375,104.3701171875,-31.43310546875
21857.576895541,0.345947265625,0.466796875,1.0350341796875,-105.8349609375,98.81591796875,-31.43310546875
21857.605330416,0.649169921875,0.466796875,1.0350341796875,-105.8349609375,98.81591796875,-31.43310546875
21857.605496958,0.649169921875,1.0347900390625,1.0350341796875,-105.8349609375,98.81591796875,-31.43310546875
21857.620977083,0.649169921875,1.0347900390625,1.05712890625,-105.8349609375,98.81591796875,-31.43310546875
21857.621095166,0.649169921875,1.0347900390625,1.05712890625,-48.828125,98.81591796875,-31.43310546875
21857.621326833,0.657958984375,1.0347900390625,1.05712890625,-48.828125,98.81591796875,-31.43310546875
21857.622306458,0.657958984375,0.7265625,1.05712890625,-48.828125,98.81591796875,-31.43310546875
21857.642145166,0.657958984375,0.7265625,1.05712890625,-48.828125,59.26513671875,-31.43310546875
21857.642240041,0.657958984375,0.7265625,1.05712890625,-48.828125,59.26513671875,-22.03369140625
21857.664760541,0.692138671875,0.7265625,1.05712890625,-48.828125,59.26513671875,-22.03369140625
21857.667135625,0.692138671875,0.793212890625,1.05712890625,-48.828125,59.26513671875,-22.03369140625
21857.667351416,0.692138671875,0.793212890625,0.8447265625,-48.828125,59.26513671875,-22.03369140625
21857.66746325,0.692138671875,0.793212890625,0.8447265625,-23.193359375,59.26513671875,-22.03369140625
21857.69652525,0.7149658203125,0.793212890625,0.8447265625,-23.193359375,59.26513671875,-22.03369140625
21857.700707,0.7149658203125,0.823486328125,0.8447265625,-23.193359375,59.26513671875,-22.03369140625
21857.715548958,0.7149658203125,0.823486328125,0.7806396484375,-23.193359375,59.26513671875,-22.03369140625
21857.715628,0.7149658203125,0.823486328125,0.7806396484375,-23.193359375,30.517578125,-22.03369140625
21857.715699125,0.7149658203125,0.823486328125,0.7806396484375,-23.193359375,30.517578125,3.7841796875
21857.741959208,0.6214599609375,0.823486328125,0.7806396484375,-23.193359375,30.517578125,3.7841796875
21857.742043375,0.6214599609375,0.5355224609375,0.7806396484375,-23.193359375,30.517578125,3.7841796875
21857.742114583,0.6214599609375,0.5355224609375,0.6597900390625,-23.193359375,30.517578125,3.7841796875
21857.742183125,0.6214599609375,0.5355224609375,0.6597900390625,-23.193359375,23.49853515625,3.7841796875
21857.758634916,0.5537109375,0.5355224609375,0.6597900390625,-23.193359375,23.49853515625,3.7841796875
21857.758701208,0.5537109375,0.4998779296875,0.6597900390625,-23.193359375,23.49853515625,3.7841796875
21857.758760125,0.5537109375,0.4998779296875,0.660400390625,-23.193359375,23.49853515625,3.7841796875
21857.774813458,0.5537109375,0.4998779296875,0.660400390625,-23.193359375,7.87353515625,3.7841796875
21857.774884291,0.5537109375,0.4998779296875,0.660400390625,-23.193359375,7.87353515625,3.5400390625
21857.79152425,0.4581298828125,0.4998779296875,0.660400390625,-23.193359375,7.87353515625,3.5400390625
NEW_REP,,,,,,
21857.846237458,0.4581298828125,0.6041259765625,0.660400390625,-23.193359375,7.87353515625,3.5400390625
21857.846334041,0.4581298828125,0.6041259765625,0.7352294921875,-23.193359375,7.87353515625,3.5400390625
21857.846751708,0.4581298828125,0.6041259765625,0.7352294921875,-23.193359375,2.01416015625,3.5400390625
21857.846937291,0.4581298828125,0.6041259765625,0.7352294921875,-23.193359375,2.01416015625,1.953125
21857.875639958,0.4581298828125,0.665771484375,0.7352294921875,-23.193359375,2.01416015625,1.953125
21857.875721916,0.4581298828125,0.665771484375,0.858154296875,-23.193359375,2.01416015625,1.953125
21857.875793666,0.4581298828125,0.665771484375,0.858154296875,23.0712890625,2.01416015625,1.953125
21857.877000333,0.4581298828125,0.665771484375,0.858154296875,23.0712890625,2.01416015625,5.126953125
21857.892388291,0.61279296875,0.665771484375,0.858154296875,23.0712890625,2.01416015625,5.126953125
21857.892462083,0.61279296875,0.7869873046875,0.858154296875,23.0712890625,2.01416015625,5.126953125
21857.892531625,0.61279296875,0.7869873046875,1.3681640625,23.0712890625,2.01416015625,5.126953125
21857.908807791,0.61279296875,0.7869873046875,1.3681640625,23.0712890625,-25.57373046875,5.126953125
21857.908885166,0.61279296875,0.7869873046875,1.3681640625,23.0712890625,-25.57373046875,23.4375
21857.936246125,0.5853271484375,0.7869873046875,1.3681640625,23.0712890625,-25.57373046875,23.4375
21857.95096675,0.5853271484375,0.9383544921875,1.3681640625,23.0712890625,-25.57373046875,23.4375
21857.95116825,0.5853271484375,0.9383544921875,1.5810546875,23.0712890625,-25.57373046875,23.4375
21857.951287166,0.5853271484375,0.9383544921875,1.5810546875,72.32666015625,-25.57373046875,23.4375
21857.951690583,0.643310546875,0.9383544921875,1.5810546875,72.32666015625,-25.57373046875,23.4375
21857.965813708,0.643310546875,0.9383544921875,1.5821533203125,72.32666015625,-25.57373046875,23.4375
21857.96604025,0.643310546875,0.9383544921875,1.5821533203125,96.8017578125,-25.57373046875,23.4375
21857.966151708,0.643310546875,0.9383544921875,1.5821533203125,96.8017578125,-80.9326171875,23.4375
21857.980741458,0.698974609375,0.9383544921875,1.5821533203125,96.8017578125,-80.9326171875,23.4375
21857.980924125,0.698974609375,0.897216796875,1.5821533203125,96.8017578125,-80.9326171875,23.4375
21857.981918166,0.698974609375,0.897216796875,1.3680419921875,96.8017578125,-80.9326171875,23.4375
21857.995653,0.698974609375,0.897216796875,1.3680419921875,96.8017578125,-122.55859375,23.4375
21857.995847,0.698974609375,0.897216796875,1.3680419921875,96.8017578125,-122.55859375,75.5615234375
21858.010646916,0.69970703125,0.897216796875,1.3680419921875,96.8017578125,-122.55859375,75.5615234375
21858.010852041,0.69970703125,0.9307861328125,1.3680419921875,96.8017578125,-122.55859375,75.5615234375
21858.010961,0.69970703125,0.9307861328125,1.2294921875,96.8017578125,-122.55859375,75.5615234375
21858.040417291,0.69970703125,0.9307861328125,1.2294921875,96.8017578125,-152.64892578125,75.5615234375
21858.040562166,0.69970703125,0.9307861328125,1.2294921875,96.8017578125,-152.64892578125,72.3876953125
21858.041376666,0.5960693359375,0.9307861328125,1.2294921875,96.8017578125,-152.64892578125,72.3876953125
21858.055755208,0.5960693359375,0.9307861328125,1.0479736328125,96.8017578125,-152.64892578125,72.3876953125
21858.055962125,0.5960693359375,0.9307861328125,1.0479736328125,96.8017578125,-152.64892578125,72.3876953125
21858.056071,0.5960693359375,0.9307861328125,1.0479736328125,96.8017578125,-174.8046875,72.3876953125
21858.101137041,0.5013427734375,0.9307861328125,1.0479736328125,96.8017578125,-174.8046875,72.3876953125
21858.101506916,0.5013427734375,0.8865966796875,1.0479736328125,96.8017578125,-174.8046875,72.3876953125
21858.101693,0.5013427734375,0.8865966796875,0.883544921875,96.8017578125,-174.8046875,72.3876953125
21858.10189825,0.5013427734375,0.8865966796875,0.883544921875,113.1591796875,-174.8046875,72.3876953125
21858.12583125,0.412841796875,0.8865966796875,0.883544921875,113.1591796875,-174.8046875,72.3876953125
21858.125925708,0.412841796875,0.7987060546875,0.883544921875,113.1591796875,-174.8046875,72.3876953125
21858.125997833,0.412841796875,0.7987060546875,0.77099609375,113.1591796875,-174.8046875,72.3876953125
21858.145970416,0.412841796875,0.7987060546875,0.77099609375,113.1591796875,-168.701171875,72.3876953125
21858.146128,0.412841796875,0.7987060546875,0.77099609375,113.1591796875,-168.701171875,87.158203125
21858.160481083,0.2303466796875,0.7987060546875,0.77099609375,113.1591796875,-168.701171875,87.158203125
21858.175580166,0.2303466796875,0.6077880859375,0.77099609375,113.1591796875,-168.701171875,87.158203125
21858.175717708,0.2303466796875,0.6077880859375,0.609375,113.1591796875,-168.701171875,87.158203125
21858.176847916,0.2303466796875,0.6077880859375,0.609375,113.1591796875,-168.701171875,80.50537109375
21858.205019208,0.0997314453125,0.6077880859375,0.609375,113.1591796875,-168.701171875,80.50537109375
21858.22102875,0.0997314453125,0.3040771484375,0.609375,113.1591796875,-168.701171875,80.50537109375
21858.221315083,0.0997314453125,0.3040771484375,0.452880859375,113.1591796875,-168.701171875,80.50537109375
21858.221469375,0.0997314453125,0.3040771484375,0.452880859375,91.12548828125,-168.701171875,80.50537109375
21858.221664041,0.0384521484375,0.3040771484375,0.452880859375,91.12548828125,-168.701171875,80.50537109375
21858.242293583,0.0384521484375,0.3040771484375,0.3538818359375,91.12548828125,-168.701171875,80.50537109375
21858.242377583,0.0384521484375,0.3040771484375,0.3538818359375,65.185546875,-168.701171875,80.50537109375
21858.250893625,0.0384521484375,0.3040771484375,0.3538818359375,65.185546875,-126.953125,80.50537109375
21858.251085291,-0.0260009765625,0.3040771484375,0.3538818359375,65.185546875,-126.953125,80.50537109375
21858.251190833,-0.0260009765625,0.14404296875,0.3538818359375,65.185546875,-126.953125,80.50537109375
21858.251708541,-0.0260009765625,0.14404296875,0.2275390625,65.185546875,-126.953125,80.50537109375
21858.2673185,-0.0260009765625,0.14404296875,0.2275390625,65.185546875,-114.990234375,80.50537109375
21858.267492708,-0.0260009765625,0.14404296875,0.2275390625,65.185546875,-114.990234375,39.73388671875
21858.298234458,-0.105224609375,0.14404296875,0.2275390625,65.185546875,-114.990234375,39.73388671875
21858.298561541,-0.105224609375,-0.0128173828125,0.2275390625,65.185546875,-114.990234375,39.73388671875
21858.298680583,-0.105224609375,-0.0128173828125,0.0802001953125,65.185546875,-114.990234375,39.73388671875
21858.313333625,-0.105224609375,-0.0128173828125,0.0802001953125,65.185546875,-92.46826171875,39.73388671875
21858.34227375,-0.105224609375,-0.0128173828125,0.0802001953125,65.185546875,-92.46826171875,24.658203125
21858.370618166,-0.2091064453125,-0.0128173828125,0.0802001953125,65.185546875,-92.46826171875,24.658203125
21858.370786208,-0.2091064453125,0.0230712890625,0.0802001953125,65.185546875,-92.46826171875,24.658203125
21858.371511,-0.2091064453125,0.0230712890625,0.047119140625,65.185546875,-92.46826171875,24.658203125
21858.371587875,-0.2091064453125,0.0230712890625,0.047119140625,65.185546875,-57.67822265625,24.658203125
21858.385822583,-0.247314453125,0.0230712890625,0.047119140625,65.185546875,-57.67822265625,24.658203125
21858.385900291,-0.247314453125,-0.1473388671875,0.047119140625,65.185546875,-57.67822265625,24.658203125
21858.385971458,-0.247314453125,-0.1473388671875,-0.019775390625,65.185546875,-57.67822265625,24.658203125
21858.402160416,-0.247314453125,-0.1473388671875,-0.019775390625,65.185546875,-8.11767578125,24.658203125
21858.425500708,-0.247314453125,-0.1473388671875,-0.019775390625,65.185546875,-8.11767578125,-0.48828125
21858.447497708,-0.22509765625,-0.1473388671875,-0.019775390625,65.185546875,-8.11767578125,-0.48828125
21858.447717208,-0.22509765625,-0.076904296875,-0.019775390625,65.185546875,-8.11767578125,-0.48828125
21858.447876541,-0.22509765625,-0.076904296875,0.0748291015625,65.185546875,-8.11767578125,-0.48828125
21858.506825625,-0.22509765625,-0.076904296875,0.0748291015625,65.185546875,32.53173828125,-0.48828125
21858.507171041,-0.22509765625,-0.076904296875,0.0748291015625,65.185546875,32.53173828125,-21.728515625
21858.507338416,-0.1048583984375,-0.076904296875,0.0748291015625,65.185546875,32.53173828125,-21.728515625
21858.534869791,-0.1048583984375,-0.076904296875,0.2237548828125,65.185546875,32.53173828125,-21.728515625
21858.542976958,-0.1048583984375,-0.076904296875,0.2237548828125,-25.45166015625,32.53173828125,-21.728515625
21858.543071875,-0.1048583984375,-0.076904296875,0.2237548828125,-25.45166015625,71.8994140625,-21.728515625
21858.551643875,-0.0726318359375,-0.076904296875,0.2237548828125,-25.45166015625,71.8994140625,-21.728515625
21858.551907125,-0.0726318359375,0.432373046875,0.2237548828125,-25.45166015625,71.8994140625,-21.728515625
21858.552015666,-0.0726318359375,0.432373046875,0.6014404296875,-25.45166015625,71.8994140625,-21.728515625
21858.565799166,-0.0726318359375,0.432373046875,0.6014404296875,-25.45166015625,71.8994140625,-60.1806640625
21858.611516208,0.148681640625,0.432373046875,0.6014404296875,-25.45166015625,71.8994140625,-60.1806640625
21858.613331583,0.148681640625,0.336669921875,0.6014404296875,-25.45166015625,71.8994140625,-60.1806640625
21858.642419583,0.148681640625,0.336669921875,0.6015625,-25.45166015625,71.8994140625,-60.1806640625
21858.642693541,0.148681640625,0.336669921875,0.6015625,-75.439453125,71.8994140625,-60.1806640625
21858.659704125,0.10205078125,0.336669921875,0.6015625,-75.439453125,71.8994140625,-60.1806640625
21858.65979825,0.10205078125,0.5791015625,0.6015625,-75.439453125,71.8994140625,-60.1806640625
21858.659896291,0.10205078125,0.5791015625,0.6015625,-75.439453125,87.58544921875,-60.1806640625
21858.660009583,0.10205078125,0.5791015625,0.6015625,-75.439453125,87.58544921875,-80.2001953125
21858.676519958,0.2864990234375,0.5791015625,0.6015625,-75.439453125,87.58544921875,-80.2001953125
21858.676614291,0.2864990234375,0.627685546875,0.6015625,-75.439453125,87.58544921875,-80.2001953125
21858.676699083,0.2864990234375,0.627685546875,0.841552734375,-75.439453125,87.58544921875,-80.2001953125
21858.685811208,0.2864990234375,0.627685546875,0.841552734375,-75.439453125,93.505859375,-80.2001953125
21858.685978208,0.2864990234375,0.627685546875,0.841552734375,-75.439453125,93.505859375,-78.06396484375
21858.715852666,0.1204833984375,0.627685546875,0.841552734375,-75.439453125,93.505859375,-78.06396484375
21858.716095416,0.1204833984375,0.9085693359375,0.841552734375,-75.439453125,93.505859375,-78.06396484375
21858.716804958,0.1204833984375,0.9085693359375,1.014892578125,-75.439453125,93.505859375,-78.06396484375
21858.717079791,0.1204833984375,0.9085693359375,1.014892578125,-75.439453125,91.4306640625,-78.06396484375
21858.747658833,0.088134765625,0.9085693359375,1.014892578125,-75.439453125,91.4306640625,-78.06396484375
21858.759954291,0.088134765625,0.910888671875,1.014892578125,-75.439453125,91.4306640625,-78.06396484375
21858.761864125,0.088134765625,0.910888671875,1.074951171875,-75.439453125,91.4306640625,-78.06396484375
21858.762129583,0.088134765625,0.910888671875,1.074951171875,-75.439453125,104.8583984375,-78.06396484375
21858.762238583,0.088134765625,0.910888671875,1.074951171875,-75.439453125,104.8583984375,-68.115234375
21858.775923625,0.20361328125,0.910888671875,1.074951171875,-75.439453125,104.8583984375,-68.115234375
21858.776173333,0.20361328125,0.66796875,1.074951171875,-75.439453125,104.8583984375,-68.115234375
21858.776295041,0.20361328125,0.66796875,1.0101318359375,-75.439453125,104.8583984375,-68.115234375
21858.792422458,0.20361328125,0.66796875,1.0101318359375,-75.439453125,106.4453125,-68.115234375
21858.792515916,0.20361328125,0.66796875,1.0101318359375,-75.439453125,106.4453125,-60.791015625
21858.809295291,0.1773681640625,0.66796875,1.0101318359375,-75.439453125,106.4453125,-60.791015625
21858.8093945,0.1773681640625,0.958740234375,1.0101318359375,-75.439453125,106.4453125,-60.791015625
21858.809481541,0.1773681640625,0.958740234375,1.101318359375,-75.439453125,106.4453125,-60.791015625
21858.825880375,0.1773681640625,0.958740234375,1.101318359375,-75.439453125,101.806640625,-60.791015625
21858.825981708,0.1773681640625,0.958740234375,1.101318359375,-75.439453125,101.806640625,-60.72998046875
21858.852526375,0.264892578125,0.958740234375,1.101318359375,-75.439453125,101.806640625,-60.72998046875
21858.852764791,0.264892578125,0.903564453125,1.101318359375,-75.439453125,101.806640625,-60.72998046875
21858.859138916,0.264892578125,0.903564453125,1.111083984375,-75.439453125,101.806640625,-60.72998046875
21858.866082083,0.264892578125,0.903564453125,1.111083984375,-75.439453125,107.60498046875,-60.72998046875
21858.866293291,0.3487548828125,0.903564453125,1.111083984375,-75.439453125,107.60498046875,-60.72998046875
21858.867429875,0.3487548828125,0.6829833984375,1.111083984375,-75.439453125,107.60498046875,-60.72998046875
21858.867592,0.3487548828125,0.6829833984375,0.9349365234375,-75.439453125,107.60498046875,-60.72998046875
21858.880674125,0.3487548828125,0.6829833984375,0.9349365234375,-75.439453125,106.4453125,-60.72998046875
21858.910663791,0.3487548828125,0.6829833984375,0.9349365234375,-75.439453125,106.4453125,-45.10498046875
21858.910845083,0.359375,0.6829833984375,0.9349365234375,-75.439453125,106.4453125,-45.10498046875
21858.911369791,0.359375,0.836181640625,0.9349365234375,-75.439453125,106.4453125,-45.10498046875
21858.927224958,0.359375,0.836181640625,1.0201416015625,-75.439453125,106.4453125,-45.10498046875
21858.927385166,0.359375,0.836181640625,1.0201416015625,-75.439453125,82.3974609375,-45.10498046875
21858.943079375,0.359375,0.836181640625,1.0201416015625,-75.439453125,82.3974609375,-43.212890625
21858.959071166,0.3927001953125,0.836181640625,1.0201416015625,-75.439453125,82.3974609375,-43.212890625
21858.959148916,0.3927001953125,0.748779296875,1.0201416015625,-75.439453125,82.3974609375,-43.212890625
21858.959219208,0.3927001953125,0.748779296875,0.90869140625,-75.439453125,82.3974609375,-43.212890625
21858.976077625,0.3927001953125,0.748779296875,0.90869140625,-75.439453125,62.1337890625,-43.212890625
21858.976173791,0.3927001953125,0.748779296875,0.90869140625,-75.439453125,62.1337890625,-39.85595703125
21858.985753875,0.3424072265625,0.748779296875,0.90869140625,-75.439453125,62.1337890625,-39.85595703125
21858.9860065,0.3424072265625,0.740234375,0.90869140625,-75.439453125,62.1337890625,-39.85595703125
21858.986132708,0.3424072265625,0.740234375,0.939697265625,-75.439453125,62.1337890625,-39.85595703125
21859.001612166,0.3424072265625,0.740234375,0.939697265625,-75.439453125,54.3212890625,-39.85595703125
21859.001812166,0.3424072265625,0.740234375,0.939697265625,-75.439453125,54.3212890625,-23.13232421875
21859.063315541,0.437255859375,0.740234375,0.939697265625,-75.439453125,54.3212890625,-23.13232421875
21859.063710083,0.437255859375,0.617919921875,0.939697265625,-75.439453125,54.3212890625,-23.13232421875
21859.063878333,0.437255859375,0.617919921875,0.90185546875,-75.439453125,54.3212890625,-23.13232421875
21859.063974833,0.437255859375,0.617919921875,0.90185546875,-6.34765625,54.3212890625,-23.13232421875
21859.090994958,0.5452880859375,0.617919921875,0.90185546875,-6.34765625,54.3212890625,-23.13232421875
21859.091255166,0.5452880859375,0.773681640625,0.90185546875,-6.34765625,54.3212890625,-23.13232421875
21859.091387541,0.5452880859375,0.773681640625,0.9361572265625,-6.34765625,54.3212890625,-23.13232421875
21859.0917305,0.5452880859375,0.773681640625,0.9361572265625,-6.34765625,21.66748046875,-23.13232421875
21859.109190958,0.4586181640625,0.773681640625,0.9361572265625,-6.34765625,21.66748046875,-23.13232421875
21859.109283541,0.4586181640625,0.8209228515625,0.9361572265625,-6.34765625,21.66748046875,-23.13232421875
21859.126123208,0.4586181640625,0.8209228515625,0.8050537109375,-6.34765625,21.66748046875,-23.13232421875
21859.126287666,0.4586181640625,0.8209228515625,0.8050537109375,-6.34765625,-1.40380859375,-23.13232421875
21859.126372708,0.4586181640625,0.8209228515625,0.8050537109375,-6.34765625,-1.40380859375,6.40869140625
21859.1358455,0.5125732421875,0.8209228515625,0.8050537109375,-6.34765625,-1.40380859375,6.40869140625
21859.136023875,0.5125732421875,0.7613525390625,0.8050537109375,-6.34765625,-1.40380859375,6.40869140625
21859.142169708,0.5125732421875,0.7613525390625,0.8870849609375,-6.34765625,-1.40380859375,6.40869140625
21859.150865,0.5125732421875,0.7613525390625,0.8870849609375,-6.34765625,-6.40869140625,6.40869140625
21859.151075958,0.5125732421875,0.7613525390625,0.8870849609375,-6.34765625,-6.40869140625,13.48876953125
NEW_REP,,,,,,
21859.197596583,0.4234619140625,0.7613525390625,0.8870849609375,-6.34765625,-6.40869140625,13.48876953125
21859.197694833,0.4234619140625,0.732666015625,0.8870849609375,-6.34765625,-6.40869140625,13.48876953125
21859.197782166,0.4234619140625,0.732666015625,1.04736328125,-6.34765625,-6.40869140625,13.48876953125
21859.197876125,0.4234619140625,0.732666015625,1.04736328125,63.17138671875,-6.40869140625,13.48876953125
21859.225488958,0.3917236328125,0.732666015625,1.04736328125,63.17138671875,-6.40869140625,13.48876953125
21859.225680208,0.3917236328125,0.7430419921875,1.04736328125,63.17138671875,-6.40869140625,13.48876953125
21859.22588775,0.3917236328125,0.7430419921875,1.1689453125,63.17138671875,-6.40869140625,13.48876953125
21859.226020708,0.3917236328125,0.7430419921875,1.1689453125,63.17138671875,-18.98193359375,13.48876953125
21859.242448833,0.3917236328125,0.7430419921875,1.1689453125,63.17138671875,-18.98193359375,30.3955078125
21859.242545208,0.4696044921875,0.7430419921875,1.1689453125,63.17138671875,-18.98193359375,30.3955078125
21859.27010925,0.4696044921875,0.64453125,1.1689453125,63.17138671875,-18.98193359375,30.3955078125
21859.285708125,0.4696044921875,0.64453125,1.2655029296875,63.17138671875,-18.98193359375,30.3955078125
21859.300591125,0.4696044921875,0.64453125,1.2655029296875,63.17138671875,-51.94091796875,30.3955078125
21859.317382,0.50439453125,0.64453125,1.2655029296875,63.17138671875,-51.94091796875,30.3955078125
21859.317578958,0.50439453125,0.64453125,1.294921875,63.17138671875,-51.94091796875,30.3955078125
21859.377760583,0.50439453125,0.64453125,1.294921875,63.17138671875,-77.57568359375,30.3955078125
21859.421691583,0.5467529296875,0.64453125,1.294921875,63.17138671875,-77.57568359375,30.3955078125
21859.451219625,0.5467529296875,0.8585205078125,1.294921875,63.17138671875,-77.57568359375,30.3955078125
21859.481399916,0.5467529296875,0.8585205078125,1.239990234375,63.17138671875,-77.57568359375,30.3955078125
21859.481847916,0.5467529296875,0.8585205078125,1.239990234375,63.17138671875,-117.5537109375,30.3955078125
21859.482027916,0.42529296875,0.8585205078125,1.239990234375,63.17138671875,-117.5537109375,30.3955078125
21859.48215175,0.42529296875,0.8585205078125,1.0234375,63.17138671875,-117.5537109375,30.3955078125
21859.510616916,0.42529296875,0.8585205078125,1.0234375,63.17138671875,-143.1884765625,30.3955078125
21859.512500458,0.42529296875,0.8585205078125,1.0234375,63.17138671875,-143.1884765625,57.43408203125
21859.571875666,0.2159423828125,0.8585205078125,1.0234375,63.17138671875,-143.1884765625,57.43408203125
21859.572242166,0.2159423828125,0.4510498046875,1.0234375,63.17138671875,-143.1884765625,57.43408203125
21859.572410625,0.2159423828125,0.4510498046875,0.68017578125,63.17138671875,-143.1884765625,57.43408203125
21859.587522375,0.2159423828125,0.4510498046875,0.68017578125,63.17138671875,-143.1884765625,76.904296875
21859.603092833,0.2159423828125,0.279052734375,0.68017578125,63.17138671875,-143.1884765625,76.904296875
21859.619084416,0.2159423828125,0.279052734375,0.5462646484375,63.17138671875,-143.1884765625,76.904296875
21859.619182583,0.2159423828125,0.279052734375,0.5462646484375,60.48583984375,-143.1884765625,76.904296875
21859.661649958,0.2159423828125,0.279052734375,0.5462646484375,60.48583984375,-143.1884765625,72.75390625
21859.662072041,-0.064697265625,0.279052734375,0.5462646484375,60.48583984375,-143.1884765625,72.75390625
21859.662239166,-0.064697265625,0.279052734375,0.5462646484375,63.4765625,-143.1884765625,72.75390625
21859.676378666,-0.064697265625,0.279052734375,0.5462646484375,63.4765625,-143.1884765625,68.4814453125
21859.706105791,-0.149169921875,0.279052734375,0.5462646484375,63.4765625,-143.1884765625,68.4814453125
21859.706352541,-0.149169921875,-0.387939453125,0.5462646484375,63.4765625,-143.1884765625,68.4814453125
21859.706485958,-0.149169921875,-0.387939453125,-0.1640625,63.4765625,-143.1884765625,68.4814453125
21859.706821083,-0.149169921875,-0.387939453125,-0.1640625,43.02978515625,-143.1884765625,68.4814453125
21859.72610525,-0.017578125,-0.387939453125,-0.1640625,43.02978515625,-143.1884765625,68.4814453125
21859.726187583,-0.017578125,-0.2567138671875,-0.1640625,43.02978515625,-143.1884765625,68.4814453125
21859.726259375,-0.017578125,-0.2567138671875,-0.2117919921875,43.02978515625,-143.1884765625,68.4814453125
21859.743235791,-0.017578125,-0.2567138671875,-0.2117919921875,43.02978515625,-8.72802734375,68.4814453125
21859.7433315,-0.017578125,-0.2567138671875,-0.2117919921875,43.02978515625,-8.72802734375,-8.11767578125
21859.7672845,0.048583984375,-0.2567138671875,-0.2117919921875,43.02978515625,-8.72802734375,-8.11767578125
21859.82533275,0.048583984375,-0.080078125,-0.2117919921875,43.02978515625,-8.72802734375,-8.11767578125
21859.827042666,0.048583984375,-0.080078125,-0.051513671875,43.02978515625,-8.72802734375,-8.11767578125
21859.827329125,0.048583984375,-0.080078125,-0.051513671875,-35.58349609375,-8.72802734375,-8.11767578125
21859.827482708,0.0093994140625,-0.080078125,-0.051513671875,-35.58349609375,-8.72802734375,-8.11767578125
21859.843382083,0.0093994140625,-0.080078125,0.0966796875,-35.58349609375,-8.72802734375,-8.11767578125
21859.870829125,0.0093994140625,-0.080078125,0.0966796875,-46.875,-8.72802734375,-8.11767578125
21859.876504583,0.0093994140625,-0.080078125,0.0966796875,-46.875,58.10546875,-8.11767578125
21859.876643916,0.0833740234375,-0.080078125,0.0966796875,-46.875,58.10546875,-8.11767578125
21859.876729875,0.0833740234375,0.121337890625,0.0966796875,-46.875,58.10546875,-8.11767578125
21859.886315583,0.0833740234375,0.121337890625,0.0966796875,-46.875,108.45947265625,-8.11767578125
21859.886502125,0.0833740234375,0.121337890625,0.0966796875,-46.875,108.45947265625,-59.50927734375
21859.90088825,0.159423828125,0.121337890625,0.0966796875,-46.875,108.45947265625,-59.50927734375
21859.916180625,0.159423828125,0.451416015625,0.0966796875,-46.875,108.45947265625,-59.50927734375
21859.916377166,0.159423828125,0.451416015625,0.7176513671875,-46.875,108.45947265625,-59.50927734375
21859.917520583,0.159423828125,0.451416015625,0.7176513671875,-46.875,124.32861328125,-59.50927734375
21859.917722291,0.159423828125,0.451416015625,0.7176513671875,-46.875,124.32861328125,-75.0732421875
21859.947707791,0.26171875,0.451416015625,0.7176513671875,-46.875,124.32861328125,-75.0732421875
21859.95223525,0.26171875,0.5001220703125,0.7176513671875,-46.875,124.32861328125,-75.0732421875
21859.961915541,0.26171875,0.5001220703125,0.8270263671875,-46.875,124.32861328125,-75.0732421875
21859.96218,0.26171875,0.5001220703125,0.8270263671875,-74.462890625,124.32861328125,-75.0732421875
21859.9623505,0.2203369140625,0.5001220703125,0.8270263671875,-74.462890625,124.32861328125,-75.0732421875
21859.966792541,0.2203369140625,0.663330078125,0.8270263671875,-74.462890625,124.32861328125,-75.0732421875
21859.97726325,0.2203369140625,0.663330078125,0.8270263671875,-74.462890625,129.638671875,-75.0732421875
21859.981670291,0.2203369140625,0.663330078125,0.8270263671875,-74.462890625,129.638671875,-81.11572265625
21859.990832208,0.1973876953125,0.663330078125,0.8270263671875,-74.462890625,129.638671875,-81.11572265625
21859.991107958,0.1973876953125,0.75439453125,0.8270263671875,-74.462890625,129.638671875,-81.11572265625
21860.009380291,0.1973876953125,0.75439453125,1.1259765625,-74.462890625,129.638671875,-81.11572265625
21860.009465125,0.1973876953125,0.75439453125,1.1259765625,-74.462890625,135.986328125,-81.11572265625
21860.009539458,0.1973876953125,0.75439453125,1.1259765625,-74.462890625,135.986328125,-70.86181640625
21860.049567208,0.35888671875,0.75439453125,1.1259765625,-74.462890625,135.986328125,-70.86181640625
21860.050443166,0.35888671875,0.63623046875,1.1259765625,-74.462890625,135.986328125,-70.86181640625
21860.050527458,0.35888671875,0.63623046875,1.0753173828125,-74.462890625,135.986328125,-70.86181640625
21860.066259041,0.35888671875,0.63623046875,1.0753173828125,-74.462890625,127.99072265625,-70.86181640625
21860.066583083,0.2589111328125,0.63623046875,1.0753173828125,-74.462890625,127.99072265625,-70.86181640625
21860.066676916,0.2589111328125,0.8892822265625,1.0753173828125,-74.462890625,127.99072265625,-70.86181640625
21860.066850791,0.2589111328125,0.8892822265625,1.2978515625,-74.462890625,127.99072265625,-70.86181640625
21860.095836041,0.2589111328125,0.8892822265625,1.2978515625,-74.462890625,124.69482421875,-70.86181640625
21860.096015708,0.2589111328125,0.8892822265625,1.2978515625,-74.462890625,124.69482421875,-62.6220703125
21860.097398458,0.362060546875,0.8892822265625,1.2978515625,-74.462890625,124.69482421875,-62.6220703125
21860.1259225,0.362060546875,0.8892822265625,1.2978515625,-48.76708984375,124.69482421875,-62.6220703125
21860.1261765,0.362060546875,0.8892822265625,1.2978515625,-48.76708984375,121.64306640625,-62.6220703125
21860.126262833,0.362060546875,0.8892822265625,1.2978515625,-48.76708984375,121.64306640625,-45.59326171875
21860.142484625,0.362060546875,0.7099609375,1.2978515625,-48.76708984375,121.64306640625,-45.59326171875
21860.142585125,0.362060546875,0.7099609375,1.1083984375,-48.76708984375,121.64306640625,-45.59326171875
21860.142658291,0.362060546875,0.7099609375,1.1083984375,-72.20458984375,121.64306640625,-45.59326171875
21860.169898291,0.362060546875,0.7099609375,1.1083984375,-72.20458984375,121.64306640625,-49.98779296875
21860.186072875,0.4453125,0.7099609375,1.1083984375,-72.20458984375,121.64306640625,-49.98779296875
21860.192023833,0.4453125,0.7379150390625,1.1083984375,-72.20458984375,121.64306640625,-49.98779296875
21860.192222958,0.4453125,0.7379150390625,1.0906982421875,-72.20458984375,121.64306640625,-49.98779296875
21860.21574425,0.4453125,0.7379150390625,1.0906982421875,-72.20458984375,87.5244140625,-49.98779296875
21860.217133333,0.4453125,0.7379150390625,1.0906982421875,-72.20458984375,87.5244140625,-35.33935546875
21860.217383958,0.563232421875,0.7379150390625,1.0906982421875,-72.20458984375,87.5244140625,-35.33935546875
21860.217510083,0.563232421875,0.5927734375,1.0906982421875,-72.20458984375,87.5244140625,-35.33935546875
21860.230824666,0.563232421875,0.5927734375,1.0906982421875,-72.20458984375,72.81494140625,-35.33935546875
21860.230974416,0.563232421875,0.5927734375,1.0906982421875,-72.20458984375,72.81494140625,-25.57373046875
21860.2754525,0.560302734375,0.5927734375,1.0906982421875,-72.20458984375,72.81494140625,-25.57373046875
21860.276789166,0.560302734375,0.773681640625,1.0906982421875,-72.20458984375,72.81494140625,-25.57373046875
21860.276969041,0.560302734375,0.773681640625,0.9342041015625,-72.20458984375,72.81494140625,-25.57373046875
21860.291150333,0.560302734375,0.773681640625,0.9342041015625,-67.138671875,72.81494140625,-25.57373046875
21860.291463416,0.48486328125,0.773681640625,0.9342041015625,-67.138671875,72.81494140625,-25.57373046875
21860.291597708,0.48486328125,0.8336181640625,0.9342041015625,-67.138671875,72.81494140625,-25.57373046875
21860.291772166,0.48486328125,0.8336181640625,0.8607177734375,-67.138671875,72.81494140625,-25.57373046875
21860.308644958,0.48486328125,0.8336181640625,0.8607177734375,-67.138671875,47.2412109375,-25.57373046875
21860.308729291,0.48486328125,0.8336181640625,0.8607177734375,-67.138671875,47.2412109375,-10.25390625
21860.325341833,0.4688720703125,0.8336181640625,0.8607177734375,-67.138671875,47.2412109375,-10.25390625
21860.350776708,0.4688720703125,0.6524658203125,0.8607177734375,-67.138671875,47.2412109375,-10.25390625
21860.350946791,0.4688720703125,0.6524658203125,0.7568359375,-67.138671875,47.2412109375,-10.25390625
21860.358195166,0.4688720703125,0.6524658203125,0.7568359375,-67.138671875,47.54638671875,-10.25390625
21860.358313375,0.4688720703125,0.6524658203125,0.7568359375,-67.138671875,47.54638671875,0.0
21860.365915541,0.4688720703125,0.52734375,0.7568359375,-67.138671875,47.54638671875,0.0
21860.366111625,0.4688720703125,0.52734375,0.9423828125,-67.138671875,47.54638671875,0.0
NEW_REP,,,,,,
21860.425801375,0.4688720703125,0.52734375,0.9423828125,-35.0341796875,47.54638671875,0.0
21860.425899708,0.4688720703125,0.52734375,0.9423828125,-35.0341796875,47.54638671875,5.126953125
21860.441678958,0.53369140625,0.52734375,0.9423828125,-35.0341796875,47.54638671875,5.126953125
21860.441808583,0.53369140625,0.3375244140625,0.9423828125,-35.0341796875,47.54638671875,5.126953125
21860.44190075,0.53369140625,0.3375244140625,0.9423828125,30.45654296875,47.54638671875,5.126953125
21860.442111958,0.53369140625,0.3375244140625,0.9423828125,30.45654296875,18.00537109375,5.126953125
21860.459361708,0.522705078125,0.3375244140625,0.9423828125,30.45654296875,18.00537109375,5.126953125
21860.459459666,0.522705078125,0.551513671875,0.9423828125,30.45654296875,18.00537109375,5.126953125
21860.459545125,0.522705078125,0.551513671875,0.923583984375,30.45654296875,18.00537109375,5.126953125
21860.475904708,0.522705078125,0.551513671875,0.923583984375,30.45654296875,-16.2353515625,5.126953125
21860.475999083,0.522705078125,0.551513671875,0.923583984375,30.45654296875,-16.2353515625,0.30517578125
21860.500770208,0.55078125,0.551513671875,0.923583984375,30.45654296875,-16.2353515625,0.30517578125
21860.500976583,0.55078125,0.59228515625,0.923583984375,30.45654296875,-16.2353515625,0.30517578125
21860.5015725,0.55078125,0.59228515625,0.9820556640625,30.45654296875,-16.2353515625,0.30517578125
21860.501738875,0.55078125,0.59228515625,0.9820556640625,35.33935546875,-16.2353515625,0.30517578125
21860.546102291,0.549560546875,0.59228515625,0.9820556640625,35.33935546875,-16.2353515625,0.30517578125
21860.546407083,0.549560546875,0.68505859375,0.9820556640625,35.33935546875,-16.2353515625,0.30517578125
21860.5466685,0.549560546875,0.68505859375,1.0859375,35.33935546875,-16.2353515625,0.30517578125
21860.546820041,0.549560546875,0.68505859375,1.0859375,51.20849609375,-16.2353515625,0.30517578125
21860.575598208,0.5582275390625,0.68505859375,1.0859375,51.20849609375,-16.2353515625,0.30517578125
21860.575865708,0.5582275390625,0.64404296875,1.0859375,51.20849609375,-16.2353515625,0.30517578125
21860.576081666,0.5582275390625,0.64404296875,1.1463623046875,51.20849609375,-16.2353515625,0.30517578125
21860.576155375,0.5582275390625,0.64404296875,1.1463623046875,51.20849609375,-44.73876953125,0.30517578125
21860.576752958,0.5582275390625,0.64404296875,1.1463623046875,51.20849609375,-44.73876953125,15.80810546875
21860.592556791,0.602783203125,0.64404296875,1.1463623046875,51.20849609375,-44.73876953125,15.80810546875
21860.592636458,0.602783203125,0.698974609375,1.1463623046875,51.20849609375,-44.73876953125,15.80810546875
21860.592706708,0.602783203125,0.698974609375,1.1986083984375,51.20849609375,-44.73876953125,15.80810546875
21860.608586166,0.602783203125,0.698974609375,1.1986083984375,51.20849609375,-73.18115234375,15.80810546875
21860.608660833,0.602783203125,0.698974609375,1.1986083984375,51.20849609375,-73.18115234375,26.18408203125
21860.651177416,0.6318359375,0.698974609375,1.1986083984375,51.20849609375,-73.18115234375,26.18408203125
21860.651376375,0.6318359375,0.6868896484375,1.1986083984375,51.20849609375,-73.18115234375,26.18408203125
21860.65175125,0.6318359375,0.6868896484375,1.1263427734375,51.20849609375,-73.18115234375,26.18408203125
21860.727909958,0.6318359375,0.6868896484375,1.1263427734375,71.533203125,-73.18115234375,26.18408203125
21860.728894416,0.6156005859375,0.6868896484375,1.1263427734375,71.533203125,-73.18115234375,26.18408203125
21860.729124958,0.6156005859375,0.69677734375,1.1263427734375,71.533203125,-73.18115234375,26.18408203125
21860.729378708,0.6156005859375,0.69677734375,1.1263427734375,71.533203125,-115.966796875,26.18408203125
21860.743009708,0.5301513671875,0.69677734375,1.1263427734375,71.533203125,-115.966796875,26.18408203125
21860.759924291,0.5301513671875,0.6787109375,1.1263427734375,71.533203125,-115.966796875,26.18408203125
21860.77590025,0.5301513671875,0.6787109375,1.0938720703125,71.533203125,-115.966796875,26.18408203125
21860.775995791,0.5301513671875,0.6787109375,1.0938720703125,71.533203125,-127.9296875,26.18408203125
21860.792761125,0.4095458984375,0.6787109375,1.0938720703125,71.533203125,-127.9296875,26.18408203125
21860.792852583,0.4095458984375,0.5687255859375,1.0938720703125,71.533203125,-127.9296875,26.18408203125
21860.792937458,0.4095458984375,0.5687255859375,1.08984375,71.533203125,-127.9296875,26.18408203125
21860.830500958,0.4095458984375,0.5687255859375,1.08984375,71.533203125,-127.9296875,50.4150390625
21860.84712,0.3023681640625,0.5687255859375,1.08984375,71.533203125,-127.9296875,50.4150390625
21860.847431125,0.3023681640625,0.57568359375,1.08984375,71.533203125,-127.9296875,50.4150390625
21860.847517833,0.3023681640625,0.57568359375,1.08984375,89.111328125,-127.9296875,50.4150390625
21860.847651916,0.3023681640625,0.57568359375,1.08984375,89.111328125,-127.9296875,56.33544921875
21860.936186583,0.21142578125,0.57568359375,1.08984375,89.111328125,-127.9296875,56.33544921875
21860.952240583,0.21142578125,0.4317626953125,1.08984375,89.111328125,-127.9296875,56.33544921875
21860.952557125,0.21142578125,0.4317626953125,0.8677978515625,89.111328125,-127.9296875,56.33544921875
21860.95302,0.21142578125,0.4317626953125,0.8677978515625,100.15869140625,-127.9296875,56.33544921875
21860.953320625,0.1439208984375,0.4317626953125,0.8677978515625,100.15869140625,-127.9296875,56.33544921875
21860.975612416,0.1439208984375,0.4317626953125,0.6903076171875,100.15869140625,-127.9296875,56.33544921875
21860.97569725,0.1439208984375,0.4317626953125,0.6903076171875,87.82958984375,-127.9296875,56.33544921875
21860.997857916,0.1439208984375,0.4317626953125,0.6903076171875,87.82958984375,-138.48876953125,56.33544921875
21860.998018583,-0.0758056640625,0.4317626953125,0.6903076171875,87.82958984375,-138.48876953125,56.33544921875
21861.001720625,-0.0758056640625,0.1490478515625,0.6903076171875,87.82958984375,-138.48876953125,56.33544921875
21861.001900333,-0.0758056640625,0.1490478515625,-0.02294921875,87.82958984375,-138.48876953125,56.33544921875
21861.025892541,-0.0758056640625,0.1490478515625,-0.02294921875,87.82958984375,-105.52978515625,56.33544921875
21861.026093333,-0.0758056640625,0.1490478515625,-0.02294921875,87.82958984375,-105.52978515625,28.1982421875
21861.026202666,-0.1968994140625,0.1490478515625,-0.02294921875,87.82958984375,-105.52978515625,28.1982421875
21861.042084166,-0.1968994140625,0.1490478515625,-0.1552734375,87.82958984375,-105.52978515625,28.1982421875
21861.042152666,-0.1968994140625,0.1490478515625,-0.1552734375,27.83203125,-105.52978515625,28.1982421875
21861.042214208,-0.1968994140625,0.1490478515625,-0.1552734375,27.83203125,-52.001953125,28.1982421875
21861.059118291,-0.2506103515625,0.1490478515625,-0.1552734375,27.83203125,-52.001953125,28.1982421875
21861.059196583,-0.2506103515625,-0.136474609375,-0.1552734375,27.83203125,-52.001953125,28.1982421875
21861.059266666,-0.2506103515625,-0.136474609375,-0.1458740234375,27.83203125,-52.001953125,28.1982421875
21861.075145416,-0.2506103515625,-0.136474609375,-0.1458740234375,27.83203125,-23.01025390625,28.1982421875
21861.075228666,-0.2506103515625,-0.136474609375,-0.1458740234375,27.83203125,-23.01025390625,1.5869140625
21861.100528041,-0.2347412109375,-0.136474609375,-0.1458740234375,27.83203125,-23.01025390625,1.5869140625
21861.1006875,-0.2347412109375,-0.1480712890625,-0.1458740234375,27.83203125,-23.01025390625,1.5869140625
21861.115687333,-0.2347412109375,-0.1480712890625,-0.0889892578125,27.83203125,-23.01025390625,1.5869140625
21861.145787291,-0.2347412109375,-0.1480712890625,-0.0889892578125,27.83203125,6.591796875,1.5869140625
21861.145967291,-0.2347412109375,-0.1480712890625,-0.0889892578125,27.83203125,6.591796875,-13.36669921875
21861.158462166,-0.234130859375,-0.1480712890625,-0.0889892578125,27.83203125,6.591796875,-13.36669921875
21861.175575291,-0.234130859375,0.00390625,-0.0889892578125,27.83203125,6.591796875,-13.36669921875
21861.17564925,-0.234130859375,0.00390625,-0.0889892578125,27.83203125,46.20361328125,-13.36669921875
21861.176282583,-0.234130859375,0.00390625,-0.0889892578125,27.83203125,46.20361328125,-28.86962890625
21861.191772041,-0.1270751953125,0.00390625,-0.0889892578125,27.83203125,46.20361328125,-28.86962890625
21861.191844458,-0.1270751953125,0.21337890625,-0.0889892578125,27.83203125,46.20361328125,-28.86962890625
21861.191985875,-0.1270751953125,0.21337890625,0.3551025390625,27.83203125,46.20361328125,-28.86962890625
21861.2086385,-0.1270751953125,0.21337890625,0.3551025390625,27.83203125,46.20361328125,-43.9453125
21861.250880041,-0.0928955078125,0.21337890625,0.3551025390625,27.83203125,46.20361328125,-43.9453125
21861.251072833,-0.0928955078125,0.2308349609375,0.3551025390625,27.83203125,46.20361328125,-43.9453125
21861.25146975,-0.0928955078125,0.2308349609375,0.5224609375,27.83203125,46.20361328125,-43.9453125
21861.265542708,-0.0928955078125,0.2308349609375,0.5224609375,27.83203125,92.4072265625,-43.9453125
21861.297405541,0.23681640625,0.2308349609375,0.5224609375,27.83203125,92.4072265625,-43.9453125
